SUBJECT	SESSION	RUN	TRIAL	73KID	10KID	TIME	ISOLD	ISCORRECT	RT	CHANGEMIND	MEMORYRECENT	MEMORYFIRST	ISOLDCURRENT	ISCORRECTCURRENT	TOTAL1	TOTAL2	BUTTON	MISSINGDATA	trial_full	is_shared1000	is_special100	shared1000_repNum	presentation_type
5	1	1	1	46003	626	0.702210800605826	0	1.0	1410.0942869990831	0.0			0	1.0	1	0	1.0	0	1	1	0	1	new
5	1	1	2	5737	5013	0.7022571341367438	0	1.0	497.39211599808186	0.0			0	1.0	1	0	1.0	0	2	0	0	0	unknown
5	1	1	3	9204	4850	0.7023033787263557	0	1.0	602.5876549974782	0.0			0	1.0	1	0	1.0	0	3	0	0	0	unknown
5	1	1	4	33363	8823	0.7023497280897572	0	1.0	432.5137889973121	0.0			0	1.0	1	0	1.0	0	4	0	0	0	unknown
5	1	1	5	64487	9538	0.70239596394822	0	1.0	552.8973930049688	0.0			0	1.0	1	0	1.0	0	5	0	0	0	unknown
5	1	1	6	46788	6061	0.7024423308903351	0	1.0	534.0041299932636	0.0			0	1.0	1	0	1.0	0	6	0	0	0	unknown
5	1	1	7	49200	4421	0.7024885625578463	0	1.0	541.6702310030814	0.0			0	1.0	1	0	1.0	0	7	0	0	0	unknown
5	1	1	8	36387	3858	0.7025348644237965	0	1.0	539.0506980038481	0.0			0	1.0	1	0	1.0	0	8	0	0	0	unknown
5	1	1	9	28377	8124	0.7025811447529122	0	1.0	446.9684409996262	0.0			0	1.0	1	0	1.0	0	9	0	0	0	unknown
5	1	1	10	22988	4843	0.7026274489471688	0	1.0	544.8373560066102	0.0			0	1.0	1	0	1.0	0	10	0	0	0	unknown
5	1	1	11	25602	7941	0.7026737366104499	0	1.0	1131.1897020059405	0.0			0	1.0	1	0	1.0	0	11	0	0	0	unknown
5	1	1	12	50992	4523	0.7027200394077227	0	1.0	865.4120529972715	0.0			0	1.0	1	0	1.0	0	12	0	0	0	unknown
5	1	1	13	14726	1070	0.7028126233490183	0	1.0	701.7197029927047	0.0			0	1.0	1	0	1.0	0	13	0	0	0	unknown
5	1	1	14	63354	9588	0.7028589185792952	0	1.0	510.0432549952529	0.0			0	1.0	1	0	1.0	0	14	0	0	0	unknown
5	1	1	15	15072	4623	0.7029052088037133	0	1.0	632.9426500014961	0.0			0	1.0	1	0	1.0	0	15	0	0	0	unknown
5	1	1	16	56525	3185	0.7029515055473893	0	1.0	534.6682819945272	0.0			0	1.0	1	0	1.0	0	16	0	0	0	unknown
5	1	1	17	18499	4586	0.7029977956553921	0	1.0	876.2234309979248	0.0			0	1.0	1	0	1.0	0	17	0	0	0	unknown
5	1	1	18	2781	1009	0.7030440878588706	0	1.0	736.2043489993085	0.0			0	1.0	1	0	1.0	0	18	0	0	0	unknown
5	1	1	19	14435	8634	0.7030903883278369	0	1.0	849.182596997707	0.0			0	1.0	1	0	1.0	0	19	0	0	0	unknown
5	1	1	20	64658	9648	0.7031366784358397	0	1.0	572.5393870088737	0.0			0	1.0	1	0	1.0	0	20	0	0	0	unknown
5	1	1	21	71054	9425	0.7031829762272536	0	1.0	877.649507005117	0.0			0	1.0	1	0	1.0	0	21	0	0	0	unknown
5	1	1	22	46530	1344	0.7032292647054418	0	1.0	545.5696150020232	0.0			0	1.0	1	0	1.0	0	22	0	0	0	unknown
5	1	1	23	33510	7441	0.703321752254851	0	1.0	945.248226998956	0.0			0	1.0	1	0	1.0	0	23	0	0	0	unknown
5	1	1	24	13115	3902	0.7033680450404062	0	1.0	992.2164200106637	0.0			0	1.0	1	0	1.0	0	24	0	0	0	unknown
5	1	1	25	35731	8795	0.7034143368946388	0	1.0	789.931812993018	0.0			0	1.0	1	0	1.0	0	25	0	0	0	unknown
5	1	1	26	42209	1840	0.703460634453222	0	1.0	702.0854069996858	0.0			0	1.0	1	0	1.0	0	26	0	0	0	unknown
5	1	1	27	34281	1356	0.7035069277044385	0	1.0	656.0467579984106	0.0			0	1.0	1	0	1.0	0	27	0	0	0	unknown
5	1	1	28	67221	5506	0.7035532194422557	0	1.0	614.1785329964478	0.0			0	1.0	1	0	1.0	0	28	0	0	0	unknown
5	1	1	29	48618	666	0.7035995135083793	0	1.0	710.940801000106	0.0			0	1.0	1	0	1.0	0	29	1	0	1	new
5	1	1	30	65907	8240	0.7036458131624385	0	1.0	912.5706509948942	0.0			0	1.0	1	0	1.0	0	30	0	0	0	unknown
5	1	1	31	9259	7232	0.7036921050166711	0	1.0	680.6009459978668	0.0			0	1.0	1	0	1.0	0	31	0	0	0	unknown
5	1	1	32	19320	5691	0.7037383988499641	0	1.0	908.6584600008792	0.0			0	1.0	1	0	1.0	0	32	0	0	0	unknown
5	1	1	33	32258	6661	0.7037846889579668	0	1.0	815.6625129922759	0.0			0	1.0	1	0	1.0	0	33	0	0	0	unknown
5	1	1	34	4667	2400	0.703830987913534	0	1.0	929.9906450032721	0.0			0	1.0	1	0	1.0	0	34	0	0	0	unknown
5	1	1	35	71437	2252	0.7039235751144587	0	1.0	671.5477649995591	0.0			0	1.0	1	0	1.0	0	35	0	0	0	unknown
5	1	1	36	44981	612	0.7039698653388768	0	1.0	884.1143520112382	0.0			0	1.0	1	0	1.0	0	36	1	0	1	new
5	1	1	37	45811	1609	0.704016163945198	0	1.0	603.2206149975536	0.0			0	1.0	1	0	1.0	0	37	0	0	0	unknown
5	1	1	38	40634	3579	0.7040624489309266	0	1.0	502.95057399489446	0.0			0	1.0	1	0	1.0	0	38	0	0	0	unknown
5	1	1	39	1701	1703	0.7041087482357397	0	1.0	569.3988499988336	0.0			0	1.0	1	0	1.0	0	39	0	0	0	unknown
5	1	1	40	9596	9976	0.7041550504509358	0	1.0	762.3510130069917	0.0			0	1.0	1	0	1.0	0	40	0	0	0	unknown
5	1	1	41	8174	5770	0.7042013357859104	0	1.0	556.4830929943128	0.0			0	1.0	1	0	1.0	0	41	0	0	0	unknown
5	1	1	42	41305	8748	0.7042476300848647	0	1.0	1145.2240029902896	0.0			0	1.0	1	0	1.0	0	42	0	0	0	unknown
5	1	1	43	27110	9202	0.7042939282255247	0	1.0	905.4856949951501	0.0			0	1.0	1	0	1.0	0	43	0	0	0	unknown
5	1	1	44	53651	3123	0.7043402233393862	0	1.0	721.1764320090879	0.0			0	1.0	1	0	1.0	0	44	0	0	0	unknown
5	1	1	45	32626	436	0.7043865148443728	0	1.0	1138.5796570102684	0.0			0	1.0	1	0	1.0	0	45	1	0	1	new
5	1	1	46	18499	4586	0.7044791049556806	1	1.0	1005.7247040094808	0.0	28.0		1	1.0	0	1	2.0	0	46	0	0	0	unknown
5	1	1	47	53723	1499	0.7045253001851961	0	1.0	869.6185540029545	0.0			0	1.0	1	0	1.0	0	47	0	0	0	unknown
5	1	1	48	3134	2872	0.7045715962303802	0	1.0	750.0536759907844	0.0			0	1.0	1	0	1.0	0	48	0	0	0	unknown
5	1	1	49	24399	9173	0.7046178831951692	0	1.0	938.418231002288	0.0			0	1.0	1	0	1.0	0	49	0	0	0	unknown
5	1	1	50	29328	2665	0.7046641850611194	0	1.0	775.3607609920435	0.0			0	1.0	1	0	1.0	0	50	0	0	0	unknown
5	1	1	51	42507	1045	0.7047104721423239	0	1.0	684.4307530118385	0.0			0	1.0	1	0	1.0	0	51	0	0	0	unknown
5	1	1	52	35808	1974	0.7047567684203386	0	1.0	805.6383729999651	0.0			0	1.0	1	0	1.0	0	52	0	0	0	unknown
5	1	1	53	67433	2268	0.7048030663281679	0	1.0	702.1022569970228	0.0			0	1.0	1	0	1.0	0	53	0	0	0	unknown
5	1	1	54	65452	7771	0.704849355155602	0	1.0	646.2879620085005	0.0			0	1.0	1	0	1.0	0	54	0	0	0	unknown
5	1	1	55	64010	6336	0.7049419411923736	0	1.0	664.6728329942562	0.0			0	1.0	1	0	1.0	0	55	0	0	0	unknown
5	1	1	56	53053	727	0.7049882437568157	0	1.0	703.8192810141481	0.0			0	1.0	1	0	1.0	0	56	1	1	1	new
5	1	1	57	4931	40	0.7050345292082056	0	1.0	1103.5971590026747	0.0			0	1.0	1	0	1.0	0	57	1	0	1	new
5	1	1	58	4491	6000	0.7050808238564059	0	1.0	837.1364979975624	0.0			0	1.0	1	0	1.0	0	58	0	0	0	unknown
5	1	1	59	2386	7046	0.7051271181553602	0	1.0	852.2514920041431	0.0			0	1.0	1	0	1.0	0	59	0	0	0	unknown
5	1	1	60	67891	1607	0.7051734200213104	0	1.0	692.7397589897737	0.0			0	1.0	1	0	1.0	0	60	0	0	0	unknown
5	1	1	61	25759	2132	0.7052197146695107	0	1.0	692.3294340085704	0.0			0	1.0	1	0	1.0	0	61	0	0	0	unknown
5	1	1	62	15463	5352	0.7052660055924206	0	1.0	571.8107510037953	0.0			0	1.0	1	0	1.0	0	62	0	0	0	unknown
5	1	1	63	64451	2514	0.7053122946526855	0	1.0	732.6761659933254	0.0			0	1.0	1	0	1.0	0	63	0	0	0	unknown
5	1	2	1	38390	5730	0.7070076116360723	0	1.0	830.9995860035997	0.0			0	1.0	1	0	1.0	0	64	0	0	0	unknown
5	1	2	2	38040	4135	0.7070539448177441	0	1.0	746.2528640025994	0.0			0	1.0	1	0	1.0	0	65	0	0	0	unknown
5	1	2	3	30022	5169	0.7071002068696542	0	1.0	714.5938269968609	0.0			0	1.0	1	0	1.0	0	66	0	0	0	unknown
5	1	2	4	63152	5821	0.7071465404005721	0	1.0	800.5570420064032	0.0			0	1.0	1	0	1.0	0	67	0	0	0	unknown
5	1	2	5	30614	8842	0.707192788948305	0	1.0	687.8096510044998	0.0			0	1.0	1	0	1.0	0	68	0	0	0	unknown
5	1	2	6	38040	4135	0.707239128067158	1	1.0	983.8051820115653	0.0	3.0		1	1.0	0	1	2.0	0	69	0	0	0	unknown
5	1	2	7	54871	4990	0.7072853820864111	0	1.0	571.7764010041719	0.0			0	1.0	1	0	1.0	0	70	0	0	0	unknown
5	1	2	8	37767	9955	0.7073317297035828	0	1.0	931.5663430024867	0.0			0	1.0	1	0	1.0	0	71	0	0	0	unknown
5	1	2	9	26314	7331	0.7073779716156423	0	1.0	603.8831070036395	0.0			0	1.0	1	0	1.0	0	72	0	0	0	unknown
5	1	2	10	26328	3470	0.7074243272654712	0	1.0	624.7858450078638	0.0			0	1.0	1	0	1.0	0	73	0	0	0	unknown
5	1	2	11	16381	9913	0.7074705625418573	0	1.0	667.2751309961312	0.0			0	1.0	1	0	1.0	0	74	0	0	0	unknown
5	1	2	12	40288	3207	0.7075631474144756	0	1.0	714.4858629908413	0.0			0	1.0	1	0	1.0	0	75	0	0	0	unknown
5	1	2	13	40283	5799	0.7076094512594863	0	1.0	704.2382929939777	0.0			0	1.0	1	0	1.0	0	76	0	0	0	unknown
5	1	2	14	11393	4068	0.7076557300752028	0	1.0	518.3489070041105	0.0			0	1.0	1	0	1.0	0	77	0	0	0	unknown
5	1	2	15	52172	2204	0.7077020342694595	0	1.0	562.5562519999221	0.0			0	1.0	1	0	1.0	0	78	0	0	0	unknown
5	1	2	16	48572	7081	0.7077483237953855	0	1.0	705.4286470083753	0.0			0	1.0	1	0	1.0	0	79	0	0	0	unknown
5	1	2	17	68113	3632	0.707794622867368	0	1.0	616.0154509998392	0.0			0	1.0	1	0	1.0	0	80	0	0	0	unknown
5	1	2	18	40387	3444	0.7078409121604636	0	1.0	629.9860139988596	0.0			0	1.0	1	0	1.0	0	81	0	0	0	unknown
5	1	2	19	63410	2840	0.7078872149577364	0	1.0	1016.466853005113	0.0			0	1.0	1	0	1.0	0	82	0	0	0	unknown
5	1	2	20	35354	1538	0.7079334931913763	0	1.0	649.6794640115695	0.0			0	1.0	1	0	1.0	0	83	0	0	0	unknown
5	1	2	21	43927	8951	0.7080260890070348	0	1.0	805.1365110004554	0.0			0	1.0	1	0	1.0	0	84	0	0	0	unknown
5	1	2	22	42404	8009	0.7080723772523924	0	1.0	817.6659189921338	0.0			0	1.0	1	0	1.0	0	85	0	0	0	unknown
5	1	2	23	742	5772	0.7081186773721128	0	1.0	702.4406830023509	0.0			0	1.0	1	0	1.0	0	86	0	0	0	unknown
5	1	2	24	33550	5200	0.7081649791216477	0	1.0	1012.3259870015316	0.0			0	1.0	1	0	1.0	0	87	0	0	0	unknown
5	1	2	25	64735	7984	0.7082112660864368	0	1.0	844.7134290036048	0.0			0	1.0	1	0	1.0	0	88	0	0	0	unknown
5	1	2	26	33777	9865	0.7082575635286048	0	1.0	832.8723360027651	0.0			0	1.0	1	0	1.0	0	89	0	0	0	unknown
5	1	2	27	64906	7367	0.7083037574775516	0	1.0	713.9740569982678	0.0			0	1.0	1	0	1.0	0	90	0	0	0	unknown
5	1	2	28	32626	436	0.7083500496810302	1	1.0	954.1560889920221	0.0	45.0		1	1.0	0	1	2.0	0	91	1	0	2	easy
5	1	2	29	39664	3014	0.7083963468903675	0	1.0	1026.2539240065962	0.0			0	1.0	1	0	1.0	0	92	0	0	0	unknown
5	1	2	30	61327	3569	0.7084426314104348	0	1.0	870.7224399986445	0.0			0	1.0	1	0	1.0	0	93	0	0	0	unknown
5	1	2	31	52348	6871	0.7085352221038193	0	1.0	689.546966998023	0.0			0	1.0	1	0	1.0	0	94	0	0	0	unknown
5	1	2	32	23329	4263	0.7085815209429711	0	1.0	692.5141009996878	0.0			0	1.0	1	0	1.0	0	95	0	0	0	unknown
5	1	2	33	17360	3694	0.708627812215127	0	1.0	958.1484759983141	0.0			0	1.0	1	0	1.0	0	96	0	0	0	unknown
5	1	2	34	17327	5322	0.7086741072125732	0	1.0	602.8259620070457	0.0			0	1.0	1	0	1.0	0	97	0	0	0	unknown
5	1	2	35	66102	4061	0.7087204084964469	0	1.0	1062.5576739985263	0.0			0	1.0	1	0	1.0	0	98	0	0	0	unknown
5	1	2	36	62232	7985	0.7087666897568851	0	1.0	739.7755470010453	0.0			0	1.0	1	0	1.0	0	99	0	0	0	unknown
5	1	2	37	48920	6041	0.7088129897601902	0	1.0	859.6730639983433	0.0			0	1.0	1	0	1.0	0	100	0	0	0	unknown
5	1	2	38	9966	6142	0.708859285688959	0	1.0	825.3523830062478	0.0			0	1.0	1	0	1.0	0	101	0	0	0	unknown
5	1	2	39	65105	6843	0.7089055728865787	0	1.0	942.9487890010931	0.0			0	1.0	1	0	1.0	0	102	0	0	0	unknown
5	1	2	40	25329	7442	0.7089518723078072	0	1.0	872.579984003096	0.0			0	1.0	1	0	1.0	0	103	0	0	0	unknown
5	1	2	41	49747	1108	0.709044462419115	0	1.0	2054.6191610046662	0.0			0	1.0	1	0	1.0	0	104	0	0	0	unknown
5	1	2	42	47838	9936	0.7090907563688233	0	1.0	821.4275869977428	0.0			0	1.0	1	0	1.0	0	105	0	0	0	unknown
5	1	2	43	66086	2757	0.7091370513662695	0	1.0	727.5846580014331	0.0			0	1.0	1	0	1.0	0	106	0	0	0	unknown
5	1	2	44	55714	9658	0.7091833455488085	0	1.0	764.181977006956	0.0			0	1.0	1	0	1.0	0	107	0	0	0	unknown
5	1	2	45	30022	5169	0.7092296389164403	1	1.0	1220.7770110107958	0.0	41.0		1	1.0	0	1	2.0	0	108	0	0	0	unknown
5	1	2	46	19994	3376	0.7092759299557656	0	1.0	726.8547440035037	0.0			0	1.0	1	0	1.0	0	109	0	0	0	unknown
5	1	2	47	54266	7287	0.7093222276307642	0	1.0	1740.2446670021163	0.0			0	1.0	1	0	1.0	0	110	0	0	0	unknown
5	1	2	48	55125	5363	0.7093685192521662	0	1.0	661.9137090019649	0.0			0	1.0	1	0	1.0	0	111	0	0	0	unknown
5	1	2	49	16916	5834	0.7094148161122575	0	0.0	1813.5952549928331	0.0			0	0.0	0	1	2.0	0	112	0	0	0	unknown
5	1	2	50	17315	6448	0.709461101447232	0	1.0	876.7195969994644	0.0			0	1.0	1	0	1.0	0	113	0	0	0	unknown
5	1	2	51	32942	4186	0.7095074041280895	0	1.0	1031.6093559958972	0.0			0	1.0	1	0	1.0	0	114	0	0	0	unknown
5	1	2	52	64442	9715	0.7095536021515727	0	1.0	645.7812839944381	0.0			0	1.0	1	0	1.0	0	115	0	0	0	unknown
5	1	2	53	16077	1430	0.7096461883047595	0	1.0	804.3205790017964	0.0			0	1.0	1	0	1.0	0	116	0	0	0	unknown
5	1	2	54	16375	9621	0.7096924767829477	0	1.0	1292.7690040087327	0.0			0	1.0	1	0	1.0	0	117	0	0	0	unknown
5	1	2	55	41751	7112	0.709738772478886	0	1.0	714.9107760051265	0.0			0	1.0	1	0	1.0	0	118	0	0	0	unknown
5	1	2	56	65821	9845	0.7097850674763321	0	1.0	773.5333739983616	0.0			0	1.0	1	0	1.0	0	119	0	0	0	unknown
5	1	2	57	60623	7473	0.7098313638707622	0	1.0	821.0453180072363	0.0			0	1.0	1	0	1.0	0	120	0	0	0	unknown
5	1	2	58	6432	60	0.7098777168430387	0	1.0	761.3207920076093	0.0			0	1.0	1	0	1.0	0	121	1	0	1	new
5	1	2	59	66086	2757	0.7099239522358401	1	1.0	959.537137998268	0.0	15.0		1	1.0	0	1	2.0	0	122	0	0	0	unknown
5	1	2	60	50413	2704	0.7099702404811978	0	1.0	949.2608860018664	0.0			0	1.0	1	0	1.0	0	123	0	0	0	unknown
5	1	2	61	14435	8634	0.710016535478644	1	1.0	955.8202499902109	0.0	104.0		1	1.0	0	1	2.0	0	124	0	0	0	unknown
5	1	2	62	3882	4900	0.710062840837054	0	1.0	1403.0754120030906	0.0			0	1.0	1	0	1.0	0	125	0	0	0	unknown
5	1	3	1	43945	7336	0.7117238127393648	0	1.0	848.3960470039165	0.0			0	1.0	1	0	1.0	0	126	0	0	0	unknown
5	1	3	2	70336	970	0.7117701137904077	0	1.0	944.9923679931088	0.0			0	1.0	1	0	1.0	0	127	1	0	1	new
5	1	3	3	29200	4229	0.7118163952836766	0	1.0	836.9433129992102	0.0			0	1.0	1	0	1.0	0	128	0	0	0	unknown
5	1	3	4	32894	3770	0.7118627083254978	0	1.0	751.7217329877894	0.0			0	1.0	1	0	1.0	0	129	0	0	0	unknown
5	1	3	5	22276	3284	0.7119089949410408	0	1.0	707.2558079962619	0.0			0	1.0	1	0	1.0	0	130	0	0	0	unknown
5	1	3	6	63263	6316	0.7119552990188822	0	1.0	601.1533660057465	0.0			0	1.0	1	0	1.0	0	131	0	0	0	unknown
5	1	3	7	44002	1266	0.7120015692198649	0	1.0	832.4459949944867	0.0			0	1.0	1	0	1.0	0	132	0	0	0	unknown
5	1	3	8	36577	479	0.7120478755095973	0	1.0	802.9480469995177	0.0			0	1.0	1	0	1.0	0	133	1	0	1	new
5	1	3	9	20872	6277	0.7120941589819267	0	1.0	804.2819310066989	0.0			0	1.0	1	0	1.0	0	134	0	0	0	unknown
5	1	3	10	66684	9754	0.7121404765639454	0	1.0	774.7063099959632	0.0			0	1.0	1	0	1.0	0	135	0	0	0	unknown
5	1	3	11	60215	7300	0.7122330568963661	0	1.0	889.8083280073479	0.0			0	1.0	1	0	1.0	0	136	0	0	0	unknown
5	1	3	12	66178	1104	0.7122793439775705	0	1.0	842.101898000692	0.0			0	1.0	1	0	1.0	0	137	0	0	0	unknown
5	1	3	13	8786	7313	0.7123256404884158	0	1.0	905.4965740069747	0.0			0	1.0	1	0	1.0	0	138	0	0	0	unknown
5	1	3	14	52502	3250	0.7123719247756525	0	1.0	925.6969699927139	0.0			0	1.0	1	0	1.0	0	139	0	0	0	unknown
5	1	3	15	45556	6726	0.7124182360712438	0	1.0	687.4113599915289	0.0			0	1.0	1	0	1.0	0	140	0	0	0	unknown
5	1	3	16	17810	8054	0.7124645164003595	0	1.0	876.6096949984785	0.0			0	1.0	1	0	1.0	0	141	0	0	0	unknown
5	1	3	17	12617	7613	0.712510822690092	0	1.0	747.1224580076523	0.0			0	1.0	1	0	1.0	0	142	0	0	0	unknown
5	1	3	18	19309	6236	0.7125571091892197	0	1.0	860.2882640116148	0.0			0	1.0	1	0	1.0	0	143	0	0	0	unknown
5	1	3	19	2558	2259	0.7126034050015732	0	1.0	771.2895099975867	0.0			0	1.0	1	0	1.0	0	144	0	0	0	unknown
5	1	3	20	4636	3968	0.7126496975542977	0	1.0	903.0521370004863	0.0			0	1.0	1	0	1.0	0	145	0	0	0	unknown
5	1	3	21	27440	2980	0.7126959969755262	0	1.0	843.6322250054218	0.0			0	1.0	1	0	1.0	0	146	0	0	0	unknown
5	1	3	22	12050	9718	0.7127422859193757	0	1.0	929.7062140103662	0.0			0	1.0	1	0	1.0	0	147	0	0	0	unknown
5	1	3	23	30390	1550	0.7127885826630517	0	1.0	912.5961910031036	0.0			0	1.0	1	0	1.0	0	148	0	0	0	unknown
5	1	3	24	27440	2980	0.7128348725382238	1	1.0	974.8558499995853	0.0	2.0		1	1.0	0	1	2.0	0	149	0	0	0	unknown
5	1	3	25	12146	6274	0.7129274603212252	0	1.0	771.5105400129686	0.0			0	1.0	1	0	1.0	0	150	0	0	0	unknown
5	1	3	26	16739	6666	0.7129737499635665	0	1.0	915.1292669994291	0.0			0	1.0	1	0	1.0	0	151	0	0	0	unknown
5	1	3	27	65707	3580	0.7130200406536459	0	1.0	588.7698470032774	0.0			0	1.0	1	0	1.0	0	152	0	0	0	unknown
5	1	3	28	57047	791	0.7130663463613018	0	1.0	1008.2448519970056	0.0			0	1.0	1	0	1.0	0	153	1	0	1	new
5	1	3	29	65452	7771	0.7131126304157078	1	0.0	685.1170430018101	0.0	99.0		1	0.0	2	0	1.0	0	154	0	0	0	unknown
5	1	3	30	62232	7985	0.7131589265773072	1	0.0	2102.6595000003	0.0	55.0		1	0.0	1	0	1.0	0	155	0	0	0	unknown
5	1	3	31	63154	5651	0.7132052277447655	0	1.0	750.8758209878578	0.0			0	1.0	1	0	1.0	0	156	0	0	0	unknown
5	1	3	32	20825	4786	0.7132515225093811	0	1.0	973.418207009672	0.0			0	1.0	1	0	1.0	0	157	0	0	0	unknown
5	1	3	33	54170	5910	0.7132977192522957	0	1.0	903.2574869925155	0.0			0	1.0	1	0	1.0	0	158	0	0	0	unknown
5	1	3	34	55954	6588	0.7133440091274678	0	1.0	792.4157109955559	0.0			0	1.0	1	0	1.0	0	159	0	0	0	unknown
5	1	3	35	33831	5925	0.7133902980713173	0	1.0	702.4743490037508	0.0			0	1.0	1	0	1.0	0	160	0	0	0	unknown
5	1	3	36	7559	5699	0.7134828963316977	0	1.0	624.1497759910999	0.0			0	1.0	1	0	1.0	0	161	0	0	0	unknown
5	1	3	37	15307	3719	0.7135291865561157	0	1.0	849.1886109986808	0.0			0	1.0	1	0	1.0	0	162	0	0	0	unknown
5	1	3	38	32276	5440	0.7135754831833764	0	1.0	586.5295479889028	0.0			0	1.0	1	0	1.0	0	163	0	0	0	unknown
5	1	3	39	62374	9470	0.7136217691004276	0	1.0	661.2794760003453	0.0			0	1.0	1	0	1.0	0	164	0	0	0	unknown
5	1	3	40	26437	1330	0.713668072479777	0	1.0	735.1376239967066	0.0			0	1.0	1	0	1.0	0	165	0	0	0	unknown
5	1	3	41	32841	8935	0.7137143639847636	0	1.0	909.0718530060255	0.0			0	1.0	1	0	1.0	0	166	0	0	0	unknown
5	1	3	42	7660	80	0.7137606556061655	0	1.0	624.4349379994674	0.0			0	1.0	1	0	1.0	0	167	1	0	1	new
5	1	3	43	32940	2159	0.7138069537468253	0	1.0	924.9237350013572	0.0			0	1.0	1	0	1.0	0	168	0	0	0	unknown
5	1	3	44	57744	1866	0.7138532460667192	0	1.0	954.4626160059123	0.0			0	1.0	1	0	1.0	0	169	0	0	0	unknown
5	1	3	45	21712	5965	0.7139458374585956	0	1.0	757.9907350009307	0.0			0	1.0	1	0	1.0	0	170	0	0	0	unknown
5	1	3	46	7278	7512	0.7139921240741387	0	1.0	816.6323180048493	0.0			0	1.0	1	0	1.0	0	171	0	0	0	unknown
5	1	3	47	30703	4025	0.7140384208178147	0	1.0	925.4582749999826	0.0			0	1.0	1	0	1.0	0	172	0	0	0	unknown
5	1	3	48	30703	4025	0.7140847174450755	1	1.0	847.4352750054096	0.0	0.0		1	1.0	0	1	2.0	0	173	0	0	0	unknown
5	1	3	49	30374	403	0.7141310077859088	0	1.0	2730.170092007029	0.0			0	1.0	1	0	1.0	0	174	1	0	1	new
5	1	3	50	16914	1665	0.7141773080220445	0	1.0	611.1664170020958	0.0			0	1.0	1	0	1.0	0	175	0	0	0	unknown
5	1	3	51	19592	9667	0.7142235953360795	0	1.0	964.3149350013118	0.0			0	1.0	1	0	1.0	0	176	0	0	0	unknown
5	1	3	52	25960	340	0.714269894757308	0	1.0	1726.7972779955016	0.0			0	1.0	1	0	1.0	0	177	1	0	1	new
5	1	3	53	22525	6692	0.7143161920830607	0	1.0	750.3183710068697	0.0			0	1.0	1	0	1.0	0	178	0	0	0	unknown
5	1	3	54	37356	3824	0.71440877369605	0	1.0	1188.346240989631	0.0			0	1.0	2	0	1.0	0	179	0	0	0	unknown
5	1	3	55	57803	1160	0.7144550703233107	0	1.0	742.4453689891379	0.0			0	1.0	1	0	1.0	0	180	0	0	0	unknown
5	1	3	56	2386	7046	0.7145013650879263	1	1.0	801.6862189979292	0.0	121.0		1	1.0	0	1	2.0	0	181	0	0	0	unknown
5	1	3	57	13660	7852	0.7145476607838644	0	1.0	688.3950519986684	0.0			0	1.0	1	0	1.0	0	182	0	0	0	unknown
5	1	3	58	50278	5291	0.71459385426715	0	1.0	930.3333589923568	0.0			0	1.0	1	0	1.0	0	183	0	0	0	unknown
5	1	3	59	64273	3595	0.714640149846673	0	1.0	1389.0707950049543	0.0			0	1.0	1	0	1.0	0	184	0	0	0	unknown
5	1	3	60	70472	2325	0.7146864463575184	0	1.0	860.1736529963091	0.0			0	1.0	1	0	1.0	0	185	0	0	0	unknown
5	1	3	61	25424	4285	0.7147327403072267	0	1.0	676.8431029922795	0.0			0	1.0	1	0	1.0	0	186	0	0	0	unknown
5	1	3	62	16816	8561	0.7147790344897657	0	1.0	641.924570008996	0.0			0	1.0	1	0	1.0	0	187	0	0	0	unknown
5	1	3	63	39664	3014	0.7148253293707966	1	1.0	1530.1414290006503	0.0	95.0		1	1.0	0	1	2.0	0	188	0	0	0	unknown
5	1	4	1	30374	403	0.7163648917339742	1	1.0	1211.0975999967195	0.0	14.0		1	1.0	0	1	2.0	0	189	1	0	2	easy
5	1	4	2	44981	612	0.7164111895253881	1	1.0	1736.9361300079615	0.0	153.0		1	1.0	0	1	2.0	0	190	1	0	2	easy
5	1	4	3	3920	4687	0.7164574846392497	0	1.0	773.8164799957302	0.0			0	1.0	1	0	1.0	0	191	0	0	0	unknown
5	1	4	4	71054	9425	0.7165037817321717	1	1.0	3673.6134120001216	1.0	170.0		1	1.0	1	1	2.0	0	192	0	0	0	unknown
5	1	4	5	28988	7750	0.716550072771497	0	1.0	952.8084110061171	0.0			0	1.0	1	0	1.0	0	193	0	0	0	unknown
5	1	4	6	5994	3194	0.7165963647421449	0	1.0	602.6188819960224	0.0			0	1.0	1	0	1.0	0	194	0	0	0	unknown
5	1	4	7	72157	2628	0.7166426597395911	0	1.0	1031.9795770046767	0.0			0	1.0	1	0	1.0	0	195	0	0	0	unknown
5	1	4	8	51703	9722	0.716688955319114	0	1.0	1273.7425069935853	0.0			0	1.0	1	0	1.0	0	196	0	0	0	unknown
5	1	4	9	16816	8561	0.7167352428659796	1	1.0	833.3691680018092	0.0	9.0		1	1.0	0	1	2.0	0	197	0	0	0	unknown
5	1	4	10	38933	2670	0.7167815403081476	0	1.0	1089.5641899987822	0.0			0	1.0	1	0	1.0	0	198	0	0	0	unknown
5	1	4	11	67620	5109	0.7168741301866248	0	1.0	902.8163840121125	0.0			0	1.0	1	0	1.0	0	199	0	0	0	unknown
5	1	4	12	51366	3457	0.7169204218080267	0	1.0	1036.6274120024173	0.0			0	1.0	1	0	1.0	0	200	0	0	0	unknown
5	1	4	13	54913	9972	0.7169667113339528	0	1.0	1953.371697993134	0.0			0	1.0	1	0	1.0	0	201	0	0	0	unknown
5	1	4	14	65415	899	0.7170130142476409	0	1.0	783.6914490035268	0.0			0	1.0	1	0	1.0	0	202	1	0	1	new
5	1	4	15	13401	5741	0.717059211921878	0	1.0	1588.4606979961973	0.0			0	1.0	1	0	1.0	0	203	0	0	0	unknown
5	1	4	16	33797	3831	0.7171054967911913	0	1.0	1150.1601680065503	0.0			0	1.0	1	0	1.0	0	204	0	0	0	unknown
5	1	4	17	13710	3799	0.7171517971437424	0	1.0	2930.787523000617	0.0			0	1.0	1	0	1.0	0	205	0	0	0	unknown
5	1	4	18	72873	2517	0.7171980889979749	0	1.0	856.0777610109653	0.0			0	1.0	1	0	1.0	0	206	0	0	0	unknown
5	1	4	19	12484	6504	0.7172443793388082	0	1.0	646.5835459966911	0.0			0	1.0	1	0	1.0	0	207	0	0	0	unknown
5	1	4	20	40049	3548	0.7173369755037128	0	1.0	1762.833672997658	0.0			0	1.0	1	0	1.0	0	208	0	0	0	unknown
5	1	4	21	6470	6399	0.7173832670086994	0	1.0	764.9667969963047	0.0			0	1.0	1	0	1.0	0	209	0	0	0	unknown
5	1	4	22	24036	3095	0.7174295571167021	0	1.0	1224.7859420021996	0.0			0	1.0	1	0	1.0	0	210	0	0	0	unknown
5	1	4	23	18885	9021	0.717475863173604	0	1.0	1602.9511179949623	0.0			0	1.0	1	0	1.0	0	211	0	0	0	unknown
5	1	4	24	15588	9121	0.7175221531651914	0	1.0	809.7282459930285	0.0			0	1.0	1	0	1.0	0	212	0	0	0	unknown
5	1	4	25	13660	7852	0.7175684401299804	1	1.0	1054.4927080045454	0.0	30.0		1	1.0	0	1	2.0	0	213	0	0	0	unknown
5	1	4	26	49747	1108	0.7176147417631	1	1.0	1861.4859929948575	0.0	109.0		1	1.0	0	1	2.0	0	214	0	0	0	unknown
5	1	4	27	15720	8441	0.7176610300084576	0	1.0	1082.0855130004927	0.0			0	1.0	1	0	1.0	0	215	0	0	0	unknown
5	1	4	28	50690	9826	0.7177073224447666	0	1.0	560.5409769923425	0.0			0	1.0	1	0	1.0	0	216	0	0	0	unknown
5	1	4	29	71690	7559	0.7177536285016685	0	1.0	1510.3639809967715	0.0			0	1.0	1	0	1.0	0	217	0	0	0	unknown
5	1	4	30	36525	2880	0.7178462130250409	0	1.0	1051.0656110127456	0.0			0	1.0	1	0	1.0	0	218	0	0	0	unknown
5	1	4	31	69210	9949	0.717892506858334	0	1.0	873.0166629975428	0.0			0	1.0	1	0	1.0	0	219	0	0	0	unknown
5	1	4	32	33510	7441	0.7179387981304898	1	1.0	844.6028480102542	0.0	196.0		1	1.0	0	1	2.0	0	220	0	0	0	unknown
5	1	4	33	36294	4751	0.7179850952234119	0	1.0	790.912031006883	0.0			0	1.0	1	0	1.0	0	221	0	0	0	unknown
5	1	4	34	8081	5679	0.7180313888238742	0	1.0	692.6505939918569	0.0			0	1.0	1	0	1.0	0	222	0	0	0	unknown
5	1	4	35	33777	9865	0.7180776827735826	1	1.0	902.6895269926173	0.0	133.0		1	1.0	0	1	2.0	0	223	0	0	0	unknown
5	1	4	36	7374	1645	0.718123975675553	0	1.0	801.7878629907501	0.0			0	1.0	1	0	1.0	0	224	0	0	0	unknown
5	1	4	37	44002	1266	0.7181702620582655	1	1.0	781.304796997574	0.0	92.0		1	1.0	0	1	2.0	0	225	0	0	0	unknown
5	1	4	38	15050	1549	0.7182165660196915	0	1.0	703.7646020035027	0.0			0	1.0	1	0	1.0	0	226	0	0	0	unknown
5	1	4	39	29200	4229	0.7182628557784482	1	1.0	892.9680269939126	0.0	98.0		1	1.0	0	1	2.0	0	227	0	0	0	unknown
5	1	4	40	66537	9562	0.7183090561302378	0	1.0	861.7244049964937	0.0			0	1.0	1	0	1.0	0	228	0	0	0	unknown
5	1	4	41	38314	6187	0.71840164239984	0	1.0	776.5351480047683	0.0			0	1.0	1	0	1.0	0	229	0	0	0	unknown
5	1	4	42	41305	8748	0.7184479318093508	1	1.0	1619.972301996313	0.0	187.0		1	1.0	0	1	2.0	0	230	0	0	0	unknown
5	1	4	43	57361	8374	0.7184942344902083	0	1.0	1666.1661340040155	0.0			0	1.0	1	0	1.0	0	231	0	0	0	unknown
5	1	4	44	42172	559	0.7185405254131183	0	1.0	1009.3397720047504	0.0			0	1.0	1	0	1.0	0	232	1	0	1	new
5	1	4	45	5603	53	0.7185868219239637	0	1.0	2150.8781800075662	0.0			0	1.0	1	0	1.0	0	233	1	0	1	new
5	1	4	46	66902	8043	0.7186331102857366	0	1.0	1189.4221050024498	0.0			0	1.0	1	0	1.0	0	234	0	0	0	unknown
5	1	4	47	3964	8972	0.7186794019071385	0	1.0	804.1444230038906	0.0			0	1.0	1	0	1.0	0	235	0	0	0	unknown
5	1	4	48	55519	5860	0.7187257064506412	0	0.0	1376.5855120000197	0.0			0	0.0	0	1	2.0	0	236	0	0	0	unknown
5	1	4	49	39012	3756	0.7187719985377043	0	1.0	1102.2796940087571	0.0			0	1.0	1	0	1.0	0	237	0	0	0	unknown
5	1	4	50	55806	4734	0.718818296561949	0	1.0	1015.8176760014612	0.0			0	1.0	1	0	1.0	0	238	0	0	0	unknown
5	1	4	51	23391	8985	0.718864581780508	0	1.0	713.5148259985726	0.0			0	1.0	1	0	1.0	0	239	0	0	0	unknown
5	1	4	52	52586	5862	0.7189108800375834	0	1.0	1815.6069889955688	0.0			0	1.0	1	0	1.0	0	240	0	0	0	unknown
5	1	4	53	6479	1681	0.7190034702653065	0	1.0	767.9387550015235	0.0			0	1.0	1	0	1.0	0	241	0	0	0	unknown
5	1	4	54	17810	8054	0.7190497562987729	1	1.0	843.2322520093293	0.0	100.0		1	1.0	0	1	2.0	0	242	0	0	0	unknown
5	1	4	55	71545	1983	0.7190960535081103	0	1.0	817.8169120074018	0.0			0	1.0	1	0	1.0	0	243	0	0	0	unknown
5	1	4	56	35031	7973	0.7191423551412299	0	1.0	624.4820749998324	0.0			0	1.0	1	0	1.0	0	244	0	0	0	unknown
5	1	4	57	309	2469	0.7191886461805552	0	1.0	590.8612290077144	0.0			0	1.0	1	0	1.0	0	245	0	0	0	unknown
5	1	4	58	21602	265	0.7192349402466788	0	1.0	657.4703160003992	0.0			0	1.0	1	0	1.0	0	246	1	0	1	new
5	1	4	59	62303	860	0.7192812315188348	0	0.0	1544.197114999406	0.0			0	0.0	0	1	2.0	0	247	1	0	1	new
5	1	4	60	16328	3951	0.719327526516281	0	1.0	693.1744429894025	0.0			0	1.0	1	0	1.0	0	248	0	0	0	unknown
5	1	4	61	40387	3444	0.7193738222122192	1	1.0	928.4188419987912	0.0	167.0		1	1.0	0	1	2.0	0	249	0	0	0	unknown
5	1	4	62	5302	45	0.7194201174424961	0	1.0	740.800968997064	0.0			0	1.0	1	0	1.0	0	250	1	0	1	new
5	1	5	1	15493	187	0.7216756581328809	0	1.0	902.3088179965271	0.0			0	1.0	1	0	1.0	0	251	1	0	1	new
5	1	5	2	35190	6960	0.7217219851445406	0	1.0	740.0562850089045	0.0			0	1.0	1	0	1.0	0	252	0	0	0	unknown
5	1	5	3	43272	9857	0.7217682529008015	0	1.0	817.416473000776	0.0			0	1.0	1	0	1.0	0	253	0	0	0	unknown
5	1	5	4	40699	9133	0.7218145767692477	0	1.0	808.0123880063182	0.0			0	1.0	1	0	1.0	0	254	0	0	0	unknown
5	1	5	5	64663	8620	0.7218608410330489	0	1.0	920.0188889954006	0.0			0	1.0	1	0	1.0	0	255	0	0	0	unknown
5	1	5	6	25288	323	0.7219071616418659	0	1.0	673.3140680007637	0.0			0	1.0	1	0	1.0	0	256	1	0	1	new
5	1	5	7	52879	7974	0.7219534307951107	0	1.0	1221.2401310098355	0.0			0	1.0	1	0	1.0	0	257	0	0	0	unknown
5	1	5	8	40886	3060	0.7219997472129762	0	1.0	924.0550099930259	0.0			0	1.0	1	0	1.0	0	258	0	0	0	unknown
5	1	5	9	72218	3271	0.7220460245152935	0	1.0	1541.5610810014186	0.0			0	1.0	1	0	1.0	0	259	0	0	0	unknown
5	1	5	10	68725	5081	0.7220923419808968	0	1.0	1042.9346070013708	0.0			0	1.0	1	0	1.0	0	260	0	0	0	unknown
5	1	5	11	21164	4741	0.722184923943132	0	1.0	838.8788520096568	0.0			0	1.0	1	0	1.0	0	261	0	0	0	unknown
5	1	5	12	22917	1085	0.7222311900695785	0	1.0	945.6909780128626	0.0			0	1.0	1	0	1.0	0	262	0	0	0	unknown
5	1	5	13	34866	6570	0.7222775095142424	0	1.0	768.2303290057461	0.0			0	1.0	1	0	1.0	0	263	0	0	0	unknown
5	1	5	14	55806	4734	0.7223237867001444	1	1.0	977.4908879917347	0.0	25.0		1	1.0	0	1	2.0	0	264	0	0	0	unknown
5	1	5	15	21602	265	0.7223701063776388	1	1.0	1474.616674997378	0.0	18.0		1	1.0	0	1	2.0	0	265	1	0	2	easy
5	1	5	16	27440	2980	0.7224163692444562	1	1.0	1128.549237997504	0.0	116.0	119.0	1	1.0	0	1	2.0	0	266	0	0	0	unknown
5	1	5	17	64166	6150	0.7224626905517652	0	1.0	890.1932980079437	0.0			0	1.0	1	0	1.0	0	267	0	0	0	unknown
5	1	5	18	6559	66	0.7225089652929455	0	1.0	877.5771950022316	0.0			0	1.0	1	0	1.0	0	268	1	0	1	new
5	1	5	19	19290	5550	0.7225552800809965	0	1.0	1089.6115960058523	0.0			0	1.0	1	0	1.0	0	269	0	0	0	unknown
5	1	5	20	59077	6106	0.7226015458581969	0	1.0	1164.124561997596	0.0			0	1.0	1	0	1.0	0	270	0	0	0	unknown
5	1	5	21	35031	7973	0.7226478388765826	1	1.0	692.5366899959045	0.0	26.0		1	1.0	0	1	2.0	0	271	0	0	0	unknown
5	1	5	22	35188	4401	0.7226941377157345	0	1.0	1220.6377839902416	0.0			0	1.0	1	0	1.0	0	272	0	0	0	unknown
5	1	5	23	26774	2727	0.722786726313643	0	1.0	1742.4804900074375	0.0			0	1.0	1	0	1.0	0	273	0	0	0	unknown
5	1	5	24	51025	6036	0.7228330140933394	0	1.0	882.6871469937032	0.0			0	1.0	1	0	1.0	0	274	0	0	0	unknown
5	1	5	25	35135	7741	0.7228793146787211	0	1.0	852.6085519988555	0.0			0	1.0	1	0	1.0	0	275	0	0	0	unknown
5	1	5	26	58467	2387	0.7229256090940906	0	1.0	830.1270820084029	0.0			0	1.0	1	0	1.0	0	276	0	0	0	unknown
5	1	5	27	54096	7130	0.7229718961752951	0	1.0	1218.4439769916935	0.0			0	1.0	1	0	1.0	0	277	0	0	0	unknown
5	1	5	28	55723	6647	0.7230181941995397	0	1.0	816.4939209964358	0.0			0	1.0	1	0	1.0	0	278	0	0	0	unknown
5	1	5	29	33831	5925	0.7230644904775545	1	1.0	1069.4140920095379	0.0	118.0		1	1.0	0	1	2.0	0	279	0	0	0	unknown
5	1	5	30	21153	3686	0.7231107774423435	0	1.0	1363.6805989954155	0.0			0	1.0	1	0	1.0	0	280	0	0	0	unknown
5	1	5	31	70336	970	0.7231570701114833	1	1.0	2013.036128002568	0.0	153.0		1	1.0	0	1	2.0	0	281	1	0	2	easy
5	1	5	32	16724	201	0.723203373956494	0	1.0	1854.04972100514	0.0			0	1.0	1	0	1.0	0	282	1	0	1	new
5	1	5	33	3920	4687	0.7232496584765613	1	0.0	1560.3881499991985	0.0	91.0		1	0.0	1	0	1.0	0	283	0	0	0	unknown
5	1	5	34	58467	2387	0.7233421541750431	1	1.0	730.4612229927443	0.0	7.0		1	1.0	0	1	2.0	0	284	0	0	0	unknown
5	1	5	35	8320	6349	0.7233884510351344	0	1.0	1251.208645000588	0.0			0	1.0	1	0	1.0	0	285	0	0	0	unknown
5	1	5	36	51366	3457	0.7234347393969073	1	1.0	1104.877932011732	0.0	85.0		1	1.0	0	1	2.0	0	286	0	0	0	unknown
5	1	5	37	70470	5237	0.7234810325317084	0	1.0	975.8784639998339	0.0			0	1.0	1	0	1.0	0	287	0	0	0	unknown
5	1	5	38	70470	5237	0.7235273326514288	1	1.0	854.9858450132887	0.0	0.0		1	1.0	0	1	2.0	0	288	0	0	0	unknown
5	1	5	39	30022	5169	0.7235736276488751	1	1.0	858.0950460018357	0.0	180.0	222.0	1	1.0	0	1	2.0	0	289	0	0	0	unknown
5	1	5	40	11865	2284	0.7236199211329221	0	1.0	1371.9575539871585	0.0			0	1.0	1	0	1.0	0	290	0	0	0	unknown
5	1	5	41	2537	4210	0.7236662181094288	0	1.0	1217.9807060019812	0.0			0	1.0	1	0	1.0	0	291	0	0	0	unknown
5	1	5	42	39085	3597	0.7237125106621533	0	1.0	921.8931579962372	0.0			0	1.0	1	0	1.0	0	292	0	0	0	unknown
5	1	5	43	40017	2768	0.7238051011227071	0	1.0	1040.5331950023535	0.0			0	1.0	1	0	1.0	0	293	0	0	0	unknown
5	1	5	44	31587	5714	0.7238513911142945	0	1.0	827.8990630060433	0.0			0	1.0	1	0	1.0	0	294	0	0	0	unknown
5	1	5	45	13660	7852	0.7238976915832608	1	1.0	721.2542599881998	0.0	81.0	112.0	1	1.0	0	1	2.0	0	295	0	0	0	unknown
5	1	5	46	31130	9788	0.7239439827390015	0	1.0	1065.654607999022	0.0			0	1.0	1	0	1.0	0	296	0	0	0	unknown
5	1	5	47	53572	9094	0.7239902747096493	0	1.0	977.6465120085048	0.0			0	1.0	1	0	1.0	0	297	0	0	0	unknown
5	1	5	48	37215	2607	0.7240365690086036	0	1.0	1171.3387750060065	0.0			0	1.0	1	0	1.0	0	298	0	0	0	unknown
5	1	5	49	36659	9272	0.724082862958312	0	1.0	1211.2135469942586	0.0			0	1.0	1	0	1.0	0	299	0	0	0	unknown
5	1	5	50	11255	5192	0.7241291524842381	0	1.0	911.6257450077682	0.0			0	1.0	1	0	1.0	0	300	0	0	0	unknown
5	1	5	51	9006	7185	0.7241754478309304	0	1.0	820.1311919983709	0.0			0	1.0	1	0	1.0	0	301	0	0	0	unknown
5	1	5	52	9616	6581	0.7242217479506508	0	1.0	1183.7575229874346	0.0			0	1.0	1	0	1.0	0	302	0	0	0	unknown
5	1	5	53	22908	1492	0.7242680363124236	0	1.0	1003.0430890037678	0.0			0	1.0	1	0	1.0	0	303	0	0	0	unknown
5	1	5	54	36598	2196	0.7243143371306359	0	1.0	828.4896050026873	0.0			0	1.0	1	0	1.0	0	304	0	0	0	unknown
5	1	5	55	42227	7998	0.7244069173466414	0	1.0	1354.8776600073325	0.0			0	1.0	1	0	1.0	0	305	0	0	0	unknown
5	1	5	56	40576	531	0.7244532192125916	0	1.0	1312.743419999606	0.0			0	1.0	1	0	1.0	0	306	1	0	1	new
5	1	5	57	55221	6520	0.7244995093205943	0	1.0	602.5231329986127	0.0			0	1.0	1	0	1.0	0	307	0	0	0	unknown
5	1	5	58	15418	3898	0.7245458015240728	0	1.0	1758.596782994573	0.0			0	1.0	1	0	1.0	0	308	0	0	0	unknown
5	1	5	59	59623	9743	0.7245919968700036	0	1.0	949.6037149947368	0.0			0	1.0	1	0	1.0	0	309	0	0	0	unknown
5	1	5	60	35876	2430	0.7246382905868813	0	1.0	847.5430760008749	0.0			0	1.0	1	0	1.0	0	310	0	0	0	unknown
5	1	5	61	17360	3694	0.7246845876798033	1	1.0	849.877603002824	0.0	214.0		1	1.0	0	1	2.0	0	311	0	0	0	unknown
5	1	5	62	40049	3548	0.7247308861697092	1	1.0	1345.49636200245	0.0	103.0		1	1.0	0	1	2.0	0	312	0	0	0	unknown
5	1	5	63	25482	1939	0.7247771850088611	0	1.0	721.1047739983769	0.0			0	1.0	1	0	1.0	0	313	0	0	0	unknown
5	1	6	1	26072	1129	0.726352805737406	0	1.0	1603.06326499267	0.0			0	1.0	1	0	1.0	0	314	0	0	0	unknown
5	1	6	2	5764	3996	0.7263991200597956	0	1.0	789.6059360064099	0.0			0	1.0	1	0	1.0	0	315	0	0	0	unknown
5	1	6	3	32650	5160	0.7264454009709879	0	1.0	2144.617199999629	0.0			0	1.0	1	0	1.0	0	316	0	0	0	unknown
5	1	6	4	41322	2539	0.7264917028369382	0	1.0	720.9832730004565	0.0			0	1.0	1	0	1.0	0	317	0	0	0	unknown
5	1	6	5	50118	5155	0.7265379813034087	0	1.0	913.7164860003395	0.0			0	1.0	1	0	1.0	0	318	0	0	0	unknown
5	1	6	6	574	3647	0.7265842745546252	0	1.0	751.6051900020102	0.0			0	1.0	1	0	1.0	0	319	0	0	0	unknown
5	1	6	7	11170	7233	0.7266305772354826	0	1.0	614.4614520017058	0.0			0	1.0	1	0	1.0	0	320	0	0	0	unknown
5	1	6	8	742	5772	0.7266768716508522	1	1.0	1005.843894992722	0.0	234.0		1	1.0	0	1	2.0	0	321	0	0	0	unknown
5	1	6	9	36129	5761	0.7267231671139597	0	1.0	783.7453940010165	0.0			0	1.0	2	0	1.0	0	322	0	0	0	unknown
5	1	6	10	72288	9964	0.7267694517504423	0	1.0	986.4749679982195	0.0			0	1.0	1	0	1.0	0	323	0	0	0	unknown
5	1	6	11	23593	3903	0.7268157455837354	0	1.0	1082.86348299589	0.0			0	1.0	1	0	1.0	0	324	0	0	0	unknown
5	1	6	12	53109	9657	0.7268620452377945	0	1.0	852.8274639975278	0.0			0	1.0	1	0	1.0	0	325	0	0	0	unknown
5	1	6	13	65790	1808	0.7269546363968402	0	1.0	821.2777019944043	0.0			0	1.0	1	0	1.0	0	326	0	0	0	unknown
5	1	6	14	69287	3036	0.7270009206840768	0	1.0	1116.8416459986474	0.0			0	1.0	1	0	1.0	0	327	0	0	0	unknown
5	1	6	15	59956	9484	0.7270472231321036	0	1.0	982.3929090052845	0.0			0	1.0	2	0	1.0	0	328	0	0	0	unknown
5	1	6	16	30703	4025	0.727093423367478	1	0.0	1166.2003920064308	0.0	155.0	156.0	1	0.0	1	0	1.0	0	329	0	0	0	unknown
5	1	6	17	52611	6068	0.7271397158037871	0	1.0	788.8512520003133	0.0			0	1.0	1	0	1.0	0	330	0	0	0	unknown
5	1	6	18	65133	5418	0.7271860066102817	0	1.0	789.5920620067045	0.0			0	1.0	1	0	1.0	0	331	0	0	0	unknown
5	1	6	19	27897	4005	0.7272323057986795	0	1.0	812.6167019945569	0.0			0	1.0	1	0	1.0	0	332	0	0	0	unknown
5	1	6	20	69258	9960	0.7272785998648033	0	1.0	1169.9915060016792	0.0			0	1.0	1	0	1.0	0	333	0	0	0	unknown
5	1	6	21	45556	6726	0.7273248851997777	1	1.0	934.0826110128546	0.0	193.0		1	1.0	0	1	2.0	0	334	0	0	0	unknown
5	1	6	22	24492	2504	0.7273711783345788	0	1.0	902.6435850100823	0.0			0	1.0	1	0	1.0	0	335	0	0	0	unknown
5	1	6	23	7610	2735	0.7274637753143905	0	1.0	835.15402500052	0.0			0	1.0	1	0	1.0	0	336	0	0	0	unknown
5	1	6	24	39116	8174	0.7275100706610828	0	1.0	736.8626800016499	0.0			0	1.0	1	0	1.0	0	337	0	0	0	unknown
5	1	6	25	37463	7260	0.7275563579751178	0	1.0	1339.0068860026076	0.0			0	1.0	1	0	1.0	0	338	0	0	0	unknown
5	1	6	26	39333	5558	0.7276026589097455	0	1.0	2210.789058997761	0.0			0	1.0	1	0	1.0	0	339	0	0	0	unknown
5	1	6	27	3877	7780	0.7276489454088731	0	1.0	944.2900150024797	0.0			0	1.0	1	0	1.0	0	340	0	0	0	unknown
5	1	6	28	70376	1014	0.7276952501852065	0	1.0	981.4002870116384	0.0			0	1.0	1	0	1.0	0	341	0	0	0	unknown
5	1	6	29	818	3638	0.7277415330754593	0	1.0	1492.710051999893	0.0			0	1.0	1	0	1.0	0	342	0	0	0	unknown
5	1	6	30	65105	6843	0.7277878323802724	1	1.0	759.6641070122131	0.0	240.0		1	1.0	0	1	2.0	0	343	0	0	0	unknown
5	1	6	31	33644	9313	0.7278341287747025	0	1.0	828.0717099987669	0.0			0	1.0	1	0	1.0	0	344	0	0	0	unknown
5	1	6	32	30825	1702	0.7278804264497011	0	1.0	847.6767050015042	0.0			0	1.0	1	0	1.0	0	345	0	0	0	unknown
5	1	6	33	45596	616	0.7279267181875184	0	1.0	702.3679309932049	0.0			0	1.0	1	0	1.0	0	346	1	1	1	new
5	1	6	34	62954	3640	0.7279730121372266	0	1.0	1137.938126004883	0.0			0	1.0	1	0	1.0	0	347	0	0	0	unknown
5	1	6	35	27633	8318	0.72806560061872	0	1.0	892.5792119989637	0.0			0	1.0	1	0	1.0	0	348	0	0	0	unknown
5	1	6	36	9580	9017	0.7281118857208639	0	1.0	2455.158400000073	0.0			0	1.0	1	0	1.0	0	349	0	0	0	unknown
5	1	6	37	72591	9347	0.7281581803690642	0	1.0	782.4929349881131	0.0			0	1.0	1	0	1.0	0	350	0	0	0	unknown
5	1	6	38	28005	5238	0.7282044822350144	0	1.0	902.2386080032448	0.0			0	1.0	1	0	1.0	0	351	0	0	0	unknown
5	1	6	39	23948	6246	0.7282507712952792	0	1.0	637.2385009890422	0.0			0	1.0	1	0	1.0	0	352	0	0	0	unknown
5	1	6	40	5994	3194	0.7282970707165077	1	1.0	824.1735140036326	0.0	158.0		1	1.0	0	1	2.0	0	353	0	0	0	unknown
5	1	6	41	53053	727	0.728343267343007	1	1.0	743.9769839984365	0.0	297.0		1	1.0	0	1	2.0	0	354	1	1	2	easy
5	1	6	42	38908	6311	0.7283895621076226	0	1.0	902.4840909987688	0.0			0	1.0	1	0	1.0	0	355	0	0	0	unknown
5	1	6	43	32841	8935	0.7284358512843027	1	1.0	845.324812005856	0.0	189.0		1	1.0	0	1	2.0	0	356	0	0	0	unknown
5	1	6	44	9918	116	0.7285284479148685	0	1.0	2257.5943490082864	0.0			0	1.0	1	0	1.0	0	357	1	0	1	new
5	1	6	45	22365	2297	0.7285747319692745	0	1.0	911.3461259985343	0.0			0	1.0	1	0	1.0	0	358	0	0	0	unknown
5	1	6	46	2012	3293	0.7286210316233336	0	1.0	782.2256010113051	0.0			0	1.0	1	0	1.0	0	359	0	0	0	unknown
5	1	6	47	26599	351	0.7286673265043646	0	1.0	1260.2721510047559	0.0			0	1.0	1	0	1.0	0	360	1	0	1	new
5	1	6	48	17814	2336	0.7287136272061616	0	1.0	1011.986303012236	0.0			0	1.0	1	0	1.0	0	361	0	0	0	unknown
5	1	6	49	21602	265	0.7287599080009385	1	1.0	736.3074309978401	0.0	96.0	115.0	1	1.0	0	1	2.0	0	362	1	0	3	easy
5	1	6	50	69210	9949	0.7288062123116105	1	1.0	748.9351120020729	0.0	143.0		1	1.0	0	1	2.0	0	363	0	0	0	unknown
5	1	6	51	65133	5418	0.7288525040494278	1	1.0	791.0627870005555	0.0	32.0		1	1.0	0	1	2.0	0	364	0	0	0	unknown
5	1	6	52	42769	6017	0.7288987989304587	0	1.0	2631.3825260003796	0.0			0	1.0	1	0	1.0	0	365	0	0	0	unknown
5	1	6	53	66435	8280	0.7289913842687383	0	1.0	1064.693439999246	0.0			0	1.0	1	0	1.0	0	366	0	0	0	unknown
5	1	6	54	6074	9965	0.7290376805467531	0	1.0	937.1950330096298	0.0			0	1.0	1	0	1.0	0	367	0	0	0	unknown
5	1	6	55	24132	8516	0.7290839676279574	0	1.0	1082.479250995675	0.0			0	1.0	1	0	1.0	0	368	0	0	0	unknown
5	1	6	56	17810	8054	0.7291302608791738	1	1.0	718.0778350011678	0.0	126.0	227.0	1	1.0	0	1	2.0	0	369	0	0	0	unknown
5	1	6	57	44002	1266	0.729176556575112	1	1.0	832.4649589922046	0.0	144.0	237.0	1	1.0	0	1	2.0	0	370	0	0	0	unknown
5	1	6	58	10003	8093	0.7292228575097396	0	1.0	909.3128530075772	0.0			0	1.0	1	0	1.0	0	371	0	0	0	unknown
5	1	6	59	14844	8498	0.7292691501788794	0	1.0	763.1454809888963	0.0			0	1.0	1	0	1.0	0	372	0	0	0	unknown
5	1	6	60	309	2469	0.7293154385406523	1	1.0	849.7466569970129	0.0	127.0		1	1.0	0	1	2.0	0	373	0	0	0	unknown
5	1	6	61	60306	830	0.7293617335380986	0	1.0	1179.8639299959175	0.0			0	1.0	1	0	1.0	0	374	1	0	1	new
5	1	6	62	12146	6274	0.7294080344727262	1	1.0	833.7930090056035	0.0	224.0		1	1.0	0	1	2.0	0	375	0	0	0	unknown
5	1	7	1	39116	8174	0.7309363064123316	1	1.0	945.9977389924461	0.0	38.0		1	1.0	0	1	2.0	0	376	0	0	0	unknown
5	1	7	2	69998	4615	0.7309826032724231	0	1.0	757.5720159948106	0.0			0	1.0	1	0	1.0	0	377	0	0	0	unknown
5	1	7	3	36295	2736	0.7310288904700428	0	1.0	891.7076939978868	0.0			0	1.0	1	0	1.0	0	378	0	0	0	unknown
5	1	7	4	33550	5200	0.7310751924524083	1	0.0	1007.9878640099196	0.0	291.0		1	0.0	1	0	1.0	0	379	0	0	0	unknown
5	1	7	5	21445	2330	0.7311214853543788	0	1.0	1217.3653990030289	0.0			0	1.0	1	0	1.0	0	380	0	0	0	unknown
5	1	7	6	43423	4470	0.7311677723191679	0	1.0	1361.652135004988	0.0			0	1.0	1	0	1.0	0	381	0	0	0	unknown
5	1	7	7	11393	4068	0.7312140758149325	1	0.0	1045.3322780085728	0.0	304.0		1	0.0	1	0	1.0	0	382	0	0	0	unknown
5	1	7	8	8278	5858	0.7312603732571005	0	1.0	734.8911709996173	0.0			0	1.0	1	0	1.0	0	383	0	0	0	unknown
5	1	7	9	35354	1538	0.7313066640635952	1	1.0	1067.82619599835	0.0	300.0		1	1.0	0	1	2.0	0	384	0	0	0	unknown
5	1	7	10	25474	6560	0.7313992527779191	0	1.0	1287.7221059898147	0.0			0	1.0	1	0	1.0	0	385	0	0	0	unknown
5	1	7	11	25753	8283	0.7314455423038452	0	1.0	1219.5988780003972	0.0			0	1.0	1	0	1.0	0	386	0	0	0	unknown
5	1	7	12	32650	5160	0.7314918379997833	1	1.0	903.9906929974675	0.0	70.0		1	1.0	0	1	2.0	0	387	0	0	0	unknown
5	1	7	13	2012	3293	0.73153813497629	1	1.0	646.9996880041435	0.0	28.0		1	1.0	0	1	2.0	0	388	0	0	0	unknown
5	1	7	14	21712	5965	0.7315844288095831	1	0.0	1153.979430993786	0.0	218.0		1	0.0	1	0	1.0	0	389	0	0	0	unknown
5	1	7	15	53252	2408	0.7316307141445577	0	1.0	749.3615900020812	0.0			0	1.0	1	0	1.0	0	390	0	0	0	unknown
5	1	7	16	19592	9667	0.7316770167089998	1	1.0	902.4404920055531	0.0	214.0		1	1.0	0	1	2.0	0	391	0	0	0	unknown
5	1	7	17	57744	1866	0.7317233082139863	1	1.0	773.340225990978	0.0	222.0		1	1.0	0	1	2.0	0	392	0	0	0	unknown
5	1	7	18	39081	3342	0.7317695979727432	0	1.0	862.5177180074387	0.0			0	1.0	1	0	1.0	0	393	0	0	0	unknown
5	1	7	19	70376	1014	0.7318158952984958	1	1.0	853.0061180063058	0.0	52.0		1	1.0	0	1	2.0	0	394	0	0	0	unknown
5	1	7	20	31068	7951	0.731908481917344	0	1.0	965.6312790029917	0.0			0	1.0	1	0	1.0	0	395	0	0	0	unknown
5	1	7	21	4673	4784	0.7319547736551612	0	1.0	709.8898749973159	0.0			0	1.0	1	0	1.0	0	396	0	0	0	unknown
5	1	7	22	34969	5660	0.7320010763360187	0	1.0	1250.8816219924483	0.0			0	1.0	1	0	1.0	0	397	0	0	0	unknown
5	1	7	23	65208	8315	0.7320473617874085	0	1.0	1237.2131900046952	0.0			0	1.0	1	0	1.0	0	398	0	0	0	unknown
5	1	7	24	39925	1098	0.7320936647010967	0	1.0	1745.242678996874	0.0			0	1.0	1	0	1.0	0	399	0	0	0	unknown
5	1	7	25	35952	1431	0.7321399579523131	0	1.0	864.97734200384	0.0			0	1.0	1	0	1.0	0	400	0	0	0	unknown
5	1	7	26	8278	5858	0.7321862508542835	1	1.0	708.6397240054794	0.0	17.0		1	1.0	0	1	2.0	0	401	0	0	0	unknown
5	1	7	27	56518	2848	0.7322324479464442	0	1.0	982.5143339985518	0.0			0	1.0	1	0	1.0	0	402	0	0	0	unknown
5	1	7	28	4787	36	0.7322787356097251	0	1.0	1287.810834008269	0.0			0	1.0	1	0	1.0	0	403	1	0	1	new
5	1	7	29	68808	6866	0.7323250307235866	0	1.0	1726.7393999936755	0.0			0	1.0	1	0	1.0	0	404	0	0	0	unknown
5	1	7	30	39925	1098	0.7323713310761377	1	1.0	724.8445790028198	0.0	5.0		1	1.0	0	1	2.0	0	405	0	0	0	unknown
5	1	7	31	65208	8315	0.7324176254915074	1	1.0	665.0389449932845	0.0	7.0		1	1.0	0	1	2.0	0	406	0	0	0	unknown
5	1	7	32	14667	5663	0.7324639201397076	0	1.0	891.327461009496	0.0			0	1.0	1	0	1.0	0	407	0	0	0	unknown
5	1	7	33	43253	2218	0.7325102147879078	0	1.0	907.2303430002648	0.0			0	1.0	1	0	1.0	0	408	0	0	0	unknown
5	1	7	34	8278	5858	0.7326028000097721	1	1.0	733.3652870001971	0.0	7.0	25.0	1	1.0	0	1	2.0	0	409	0	0	0	unknown
5	1	7	35	36659	9272	0.7326491014100611	1	1.0	2385.3184440085897	0.0	110.0		1	1.0	0	1	2.0	0	410	0	0	0	unknown
5	1	7	36	66960	8216	0.732695389422588	0	1.0	735.4991439933655	0.0			0	1.0	1	0	1.0	0	411	0	0	0	unknown
5	1	7	37	68811	7520	0.732741683954373	0	1.0	889.2629360052525	0.0			0	1.0	1	0	1.0	0	412	0	0	0	unknown
5	1	7	38	43851	5919	0.7327879717340692	0	1.0	969.5700650045183	0.0			0	1.0	1	0	1.0	0	413	0	0	0	unknown
5	1	7	39	29010	2451	0.7328342749970033	0	1.0	754.4020280038238	0.0			0	1.0	1	0	1.0	0	414	0	0	0	unknown
5	1	7	40	41784	9575	0.7328805606812238	0	1.0	1526.7836049897596	0.0			0	1.0	1	0	1.0	0	415	0	0	0	unknown
5	1	7	41	21445	2330	0.7329268612666054	1	1.0	757.4221530085197	0.0	35.0		1	1.0	0	1	2.0	0	416	0	0	0	unknown
5	1	7	42	36956	7310	0.7329731530044227	0	1.0	903.5393699887208	0.0			0	1.0	1	0	1.0	0	417	0	0	0	unknown
5	1	7	43	14256	8175	0.7330194549867883	0	1.0	847.0357890037121	0.0			0	1.0	1	0	1.0	0	418	0	0	0	unknown
5	1	7	44	2558	2259	0.7330657427664846	1	1.0	835.3469329886137	0.0	274.0		1	1.0	0	1	2.0	0	419	0	0	0	unknown
5	1	7	45	35188	4401	0.7331120349699631	1	1.0	752.2901909978827	0.0	147.0		1	1.0	0	1	2.0	0	420	0	0	0	unknown
5	1	7	46	13115	3902	0.7332046288065612	1	1.0	1646.1601539922412	0.0	396.0		1	1.0	0	1	2.0	0	421	0	0	0	unknown
5	1	7	47	64775	9335	0.7332509136758744	0	1.0	1177.9752529982943	0.0			0	1.0	1	0	1.0	0	422	0	0	0	unknown
5	1	7	48	71842	2760	0.7332972155418246	0	1.0	953.7813030037795	0.0			0	1.0	1	0	1.0	0	423	0	0	0	unknown
5	1	7	49	42769	6017	0.733343509840779	1	1.0	850.2573709993156	0.0	58.0		1	1.0	0	1	2.0	0	424	0	0	0	unknown
5	1	7	50	47136	8170	0.7333897082135081	0	1.0	1582.2206209995784	0.0			0	1.0	1	0	1.0	0	425	0	0	0	unknown
5	1	7	51	22495	5262	0.7334360021632164	0	1.0	805.3087949956534	0.0			0	1.0	1	0	1.0	0	426	0	0	0	unknown
5	1	7	52	22495	5262	0.7334822964621707	1	1.0	963.0375080014346	0.0	0.0		1	1.0	0	1	2.0	0	427	0	0	0	unknown
5	1	7	53	17814	2336	0.7335285929730162	1	1.0	1705.0624830008019	0.0	66.0		1	1.0	0	1	2.0	0	428	0	0	0	unknown
5	1	7	54	10588	3862	0.7335748834302648	0	1.0	1284.0022830059752	0.0			0	1.0	1	0	1.0	0	429	0	0	0	unknown
5	1	7	55	70840	8482	0.7336674716789275	0	1.0	1350.5990019912133	0.0			0	1.0	1	0	1.0	0	430	0	0	0	unknown
5	1	7	56	4753	9525	0.7337137646973133	0	1.0	1046.8437899980927	0.0			0	1.0	1	0	1.0	0	431	0	0	0	unknown
5	1	7	57	18954	3450	0.7337600591126829	0	1.0	705.9235729975626	0.0			0	1.0	1	0	1.0	0	432	0	0	0	unknown
5	1	7	58	22525	6692	0.7338063481729477	1	1.0	872.5296100019477	0.0	254.0		1	1.0	0	1	2.0	0	433	0	0	0	unknown
5	1	7	59	19182	230	0.733852649340406	0	1.0	803.2096899987664	0.0			0	1.0	1	0	1.0	0	434	1	0	1	new
5	1	7	60	33442	5967	0.7338989351410418	0	1.0	1660.2127389924135	0.0			0	1.0	1	0	1.0	0	435	0	0	0	unknown
5	1	7	61	26704	7856	0.7339452366577461	0	1.0	1131.529441991006	0.0			0	1.0	1	0	1.0	0	436	0	0	0	unknown
5	1	7	62	43545	8586	0.7339915233897045	0	1.0	977.5652219977928	0.0			0	1.0	1	0	1.0	0	437	0	0	0	unknown
5	1	7	63	54096	7130	0.7340378263033926	1	1.0	1027.9040850000456	0.0	160.0		1	1.0	0	1	2.0	0	438	0	0	0	unknown
5	1	8	1	70235	8109	0.7355167254572734	0	1.0	1375.3230909933336	0.0			0	1.0	1	0	1.0	0	439	0	0	0	unknown
5	1	8	2	6559	66	0.7355630204547196	1	1.0	1036.2427590007428	0.0	171.0		1	1.0	0	1	2.0	0	440	1	0	2	easy
5	1	8	3	72081	992	0.7356093133566901	0	1.0	975.4078069963725	0.0			0	1.0	1	0	1.0	0	441	1	0	1	new
5	1	8	4	48589	2986	0.7356556177837774	0	1.0	728.8243109942413	0.0			0	1.0	1	0	1.0	0	442	0	0	0	unknown
5	1	8	5	62879	1192	0.7357019027695059	0	1.0	964.3649130011908	0.0			0	1.0	1	0	1.0	0	443	0	0	0	unknown
5	1	8	6	23902	5568	0.7357482156949117	0	1.0	839.8160650103817	0.0			0	1.0	1	0	1.0	0	444	0	0	0	unknown
5	1	8	7	3982	2203	0.7357944815885274	0	1.0	1148.1664479942992	0.0			0	1.0	1	0	1.0	0	445	0	0	0	unknown
5	1	8	8	9006	7185	0.7358407990541309	1	1.0	866.8181920074858	0.0	144.0		1	1.0	0	1	2.0	0	446	0	0	0	unknown
5	1	8	9	72102	4001	0.7358870741445571	0	1.0	904.1718389926243	0.0			0	1.0	1	0	1.0	0	447	0	0	0	unknown
5	1	8	10	25424	4285	0.7359796671662479	1	1.0	1103.0882900085999	0.0	261.0		1	1.0	0	1	2.0	0	448	0	0	0	unknown
5	1	8	11	36068	475	0.7360259896377102	0	1.0	822.448462000466	0.0			0	1.0	1	0	1.0	0	449	1	0	1	new
5	1	8	12	43945	7336	0.7360722552984952	1	0.0	881.990099005634	0.0	323.0		1	0.0	1	0	1.0	0	450	0	0	0	unknown
5	1	8	13	35414	1800	0.7361185871995986	0	1.0	1112.6399750064593	0.0			0	1.0	1	0	1.0	0	451	0	0	0	unknown
5	1	8	14	15588	9121	0.7361648383084684	1	1.0	860.5054770014248	0.0	239.0		1	1.0	0	1	2.0	0	452	0	0	0	unknown
5	1	8	15	12952	7428	0.7362111817346885	0	1.0	997.61049899098	0.0			0	1.0	1	0	1.0	0	453	0	0	0	unknown
5	1	8	16	14667	5663	0.7362574287690222	1	1.0	923.4433529927629	0.0	46.0		1	1.0	0	1	2.0	0	454	0	0	0	unknown
5	1	8	17	64814	6579	0.7363037781324236	0	1.0	896.9149399927119	0.0			0	1.0	1	0	1.0	0	455	0	0	0	unknown
5	1	8	18	59141	7917	0.7363500206265599	0	1.0	977.4787080095848	0.0			0	1.0	1	0	1.0	0	456	0	0	0	unknown
5	1	8	19	39012	3756	0.7363963753450661	1	0.0	1547.4264030053744	0.0	219.0		1	0.0	1	0	1.0	0	457	0	0	0	unknown
5	1	8	20	59077	6106	0.7364889717428013	1	1.0	1199.5672539924271	0.0	187.0		1	1.0	0	1	2.0	0	458	0	0	0	unknown
5	1	8	21	26973	2186	0.7365351961925625	0	1.0	1805.027340000379	0.0			0	1.0	1	0	1.0	0	459	0	0	0	unknown
5	1	8	22	69998	4615	0.7365815624361857	1	1.0	771.716577000916	0.0	82.0		1	1.0	0	1	2.0	0	460	0	0	0	unknown
5	1	8	23	34684	4306	0.7366277843248099	0	1.0	981.646088999696	0.0			0	1.0	1	0	1.0	0	461	0	0	0	unknown
5	1	8	24	67777	5523	0.7366741609293967	0	1.0	994.7344250103923	0.0			0	1.0	1	0	1.0	0	462	0	0	0	unknown
5	1	8	25	52879	7974	0.7367203735047951	1	1.0	1122.5989079975989	0.0	205.0		1	1.0	0	1	2.0	0	463	0	0	0	unknown
5	1	8	26	28118	1196	0.7367666715290397	0	1.0	1289.910455001518	0.0			0	1.0	1	0	1.0	0	464	0	0	0	unknown
5	1	8	27	12050	9718	0.7368129590759053	1	1.0	1002.021041000262	0.0	317.0		1	1.0	0	1	2.0	0	465	0	0	0	unknown
5	1	8	28	10325	9244	0.7368592703714966	0	1.0	1412.8591699991375	0.0			0	1.0	1	0	1.0	0	466	0	0	0	unknown
5	1	8	29	59812	2604	0.7369055418530479	0	1.0	1315.244678989984	0.0			0	1.0	1	0	1.0	0	467	0	0	0	unknown
5	1	8	30	65040	4793	0.7369518526829779	0	1.0	1281.4981089904904	0.0			0	1.0	2	0	1.0	0	468	0	0	0	unknown
5	1	8	31	71754	988	0.7370444367406889	0	1.0	1073.0124019901268	0.0			0	1.0	1	0	1.0	0	469	1	0	1	new
5	1	8	32	46709	5894	0.7370906296418979	0	1.0	1147.430564989918	0.0			0	1.0	1	0	1.0	0	470	0	0	0	unknown
5	1	8	33	65718	1732	0.7371369148604571	0	1.0	1002.9122199921404	0.0			0	1.0	1	0	1.0	0	471	0	0	0	unknown
5	1	8	34	54299	6066	0.7371832152130082	0	1.0	1257.3516980046406	0.0			0	1.0	1	0	1.0	0	472	0	0	0	unknown
5	1	8	35	6799	7020	0.7372295093955472	0	1.0	951.5887539891992	0.0			0	1.0	1	0	1.0	0	473	0	0	0	unknown
5	1	8	36	50158	9798	0.7372758028795942	0	1.0	844.4595009932526	0.0			0	1.0	1	0	1.0	0	474	0	0	0	unknown
5	1	8	37	23103	1771	0.7373220982262864	0	1.0	938.5589739977149	0.0			0	1.0	1	0	1.0	0	475	0	0	0	unknown
5	1	8	38	33768	5382	0.7373683941550552	0	1.0	1533.7611499999184	0.0			0	1.0	1	0	1.0	0	476	0	0	0	unknown
5	1	8	39	55230	8917	0.7374146812362596	0	1.0	773.6061670002526	0.0			0	1.0	1	0	1.0	0	477	0	0	0	unknown
5	1	8	40	38908	6311	0.7374609797261655	1	1.0	839.5456550060771	0.0	122.0		1	1.0	0	1	2.0	0	478	0	0	0	unknown
5	1	8	41	28655	5514	0.7375072756549343	0	1.0	1026.6942910093348	0.0			0	1.0	1	0	1.0	0	479	0	0	0	unknown
5	1	8	42	3176	3924	0.7375998630886897	0	1.0	1183.7617059936747	0.0			0	1.0	1	0	1.0	0	480	0	0	0	unknown
5	1	8	43	59812	2604	0.737646158435382	1	1.0	817.6410279993434	0.0	13.0		1	1.0	0	1	2.0	0	481	0	0	0	unknown
5	1	8	44	62879	1192	0.7376924514537677	1	1.0	884.2689129960489	0.0	38.0		1	1.0	0	1	2.0	0	482	0	0	0	unknown
5	1	8	45	4449	2755	0.7377387466840445	0	1.0	968.616280995775	0.0			0	1.0	1	0	1.0	0	483	0	0	0	unknown
5	1	8	46	55266	9761	0.7377850335324183	0	1.0	1103.9068370009772	0.0			0	1.0	1	0	1.0	0	484	0	0	0	unknown
5	1	8	47	12663	1968	0.7378313336521387	0	1.0	1251.0672689968487	0.0			0	1.0	1	0	1.0	0	485	0	0	0	unknown
5	1	8	48	71690	7559	0.7378776217810809	1	1.0	1123.841439009993	0.0	268.0		1	1.0	0	1	2.0	0	486	0	0	0	unknown
5	1	8	49	54759	1551	0.7379239230649545	0	1.0	1073.164467990864	0.0			0	1.0	1	0	1.0	0	487	0	0	0	unknown
5	1	8	50	16739	6666	0.7379702184116467	1	0.0	2456.9906850083494	0.0	336.0		1	0.0	1	0	1.0	0	488	0	0	0	unknown
5	1	8	51	47136	8170	0.7380165077047423	1	0.0	1944.4185589964036	0.0	63.0		1	0.0	1	0	1.0	0	489	0	0	0	unknown
5	1	8	52	39012	3756	0.7380628015380352	1	1.0	1275.495245005004	0.0	32.0	252.0	1	1.0	0	1	2.0	0	490	0	0	0	unknown
5	1	8	53	55801	2262	0.738109100726433	0	1.0	1026.6282450029391	0.0			0	1.0	1	0	1.0	0	491	0	0	0	unknown
5	1	8	54	4673	4784	0.7381553957238793	1	1.0	871.9584430073155	0.0	95.0		1	1.0	0	1	2.0	0	492	0	0	0	unknown
5	1	8	55	31587	5714	0.7382479833904653	1	1.0	2531.1967580055352	0.0	198.0		1	1.0	0	1	2.0	0	493	0	0	0	unknown
5	1	8	56	49747	1108	0.7382942775730043	1	1.0	991.5798979927785	0.0	279.0	389.0	1	1.0	0	1	2.0	0	494	0	0	0	unknown
5	1	8	57	57134	1224	0.7383405655855312	0	1.0	953.6414229951331	0.0			0	1.0	1	0	1.0	0	495	0	0	0	unknown
5	1	8	58	18705	9934	0.7383867687312886	0	1.0	807.4965030100428	0.0			0	1.0	1	0	1.0	0	496	0	0	0	unknown
5	1	8	59	14202	1317	0.7384330607019364	0	1.0	1216.2538340053288	0.0			0	1.0	1	0	1.0	0	497	0	0	0	unknown
5	1	8	60	58145	805	0.7384793574456125	0	1.0	1003.5686689952854	0.0			0	1.0	1	0	1.0	0	498	1	0	1	new
5	1	8	61	11480	5274	0.7385256502311676	0	1.0	1202.936829009559	0.0			0	1.0	1	0	1.0	0	499	0	0	0	unknown
5	1	8	62	24959	5350	0.7385719453450292	0	1.0	1626.5958079893608	0.0			0	1.0	1	0	1.0	0	500	0	0	0	unknown
5	1	9	1	55801	2262	0.7410306975943967	1	1.0	914.2382860009092	0.0	9.0		1	1.0	0	1	2.0	0	501	0	0	0	unknown
5	1	9	2	23948	6246	0.7410769967827945	1	1.0	1030.5836469924543	0.0	149.0		1	1.0	0	1	2.0	0	502	0	0	0	unknown
5	1	9	3	36659	9272	0.7411232804879546	1	1.0	1030.435528999078	0.0	92.0	203.0	1	1.0	0	1	2.0	0	503	0	0	0	unknown
5	1	9	4	21164	4741	0.7411695915507152	1	1.0	1809.9092799966456	0.0	242.0		1	1.0	0	1	2.0	0	504	0	0	0	unknown
5	1	9	5	11943	145	0.7412158745573832	0	1.0	1169.02762799873	0.0			0	1.0	1	0	1.0	0	505	1	1	1	new
5	1	9	6	68022	6367	0.7412621827097609	0	1.0	1749.670674005756	0.0			0	1.0	1	0	1.0	0	506	0	0	0	unknown
5	1	9	7	40049	3548	0.7413084541913121	1	1.0	736.1582099983934	0.0	194.0	298.0	1	1.0	0	1	2.0	0	507	0	0	0	unknown
5	1	9	8	34562	2752	0.741354769677855	0	1.0	2161.037045996636	0.0			0	1.0	1	0	1.0	0	508	0	0	0	unknown
5	1	9	9	19182	230	0.741401041392237	1	1.0	705.7827740063658	0.0	74.0		1	1.0	0	1	2.0	0	509	1	0	2	easy
5	1	9	10	71513	9922	0.7414473403478041	0	1.0	961.0503519943449	0.0			0	1.0	1	0	1.0	0	510	0	0	0	unknown
5	1	9	11	33325	5889	0.7414936285931617	0	1.0	1003.3147670037578	0.0			0	1.0	1	0	1.0	0	511	0	0	0	unknown
5	1	9	12	11734	2377	0.74153992254287	0	1.0	1076.2342550005997	0.0			0	1.0	1	0	1.0	0	512	0	0	0	unknown
5	1	9	13	22908	1492	0.7415862258058041	1	1.0	1593.0212609964656	0.0	209.0		1	1.0	0	1	2.0	0	513	0	0	0	unknown
5	1	9	14	5994	3194	0.7416788137052208	1	1.0	707.6433350011939	0.0	160.0	319.0	1	1.0	0	1	2.0	0	514	0	0	0	unknown
5	1	9	15	35001	1899	0.7417250995058566	0	1.0	1302.7287729928503	0.0			0	1.0	1	0	1.0	0	515	0	0	0	unknown
5	1	9	16	68787	9049	0.7417713982285931	0	1.0	739.5226310036379	0.0			0	1.0	1	0	1.0	0	516	0	0	0	unknown
5	1	9	17	68725	5081	0.7418176900828257	1	1.0	1072.230934005347	0.0	256.0		1	1.0	0	1	2.0	0	517	0	0	0	unknown
5	1	9	18	39116	8174	0.7418639907846227	1	1.0	636.4422360056777	0.0	141.0	180.0	1	1.0	0	1	2.0	0	518	0	0	0	unknown
5	1	9	19	4809	1624	0.7419102793792262	0	1.0	975.8029969962082	0.0			0	1.0	1	0	1.0	0	519	0	0	0	unknown
5	1	9	20	38818	511	0.7419565796153619	0	1.0	1271.7616169975372	0.0			0	1.0	1	0	1.0	0	520	1	0	1	new
5	1	9	21	25469	4420	0.7420028642518445	0	1.0	714.8511319974205	0.0			0	1.0	1	0	1.0	0	521	0	0	0	unknown
5	1	9	22	32305	5745	0.7420491675147786	0	1.0	670.4346210026415	0.0			0	1.0	1	0	1.0	0	522	0	0	0	unknown
5	1	9	23	68420	3492	0.7420954605331644	0	1.0	1303.0605069943704	0.0			0	1.0	1	0	1.0	0	523	0	0	0	unknown
5	1	9	24	66490	919	0.7421417562291026	0	1.0	1552.3741580109345	0.0			0	1.0	1	0	1.0	0	524	1	0	1	new
5	1	9	25	58775	5733	0.7422342486679553	0	1.0	1310.4661309916992	0.0			0	1.0	1	0	1.0	0	525	0	0	0	unknown
5	1	9	26	69588	8542	0.7422805419191718	0	1.0	1227.9585030046292	0.0			0	1.0	1	0	1.0	0	526	0	0	0	unknown
5	1	9	27	10594	2220	0.7423268342390656	0	1.0	928.6845479946351	0.0			0	1.0	1	0	1.0	0	527	0	0	0	unknown
5	1	9	28	71233	984	0.7423731301678343	0	1.0	1550.2836579980794	0.0			0	1.0	1	0	1.0	0	528	1	0	1	new
5	1	9	29	13442	7057	0.7424194168997929	0	1.0	1246.4183289994253	0.0			0	1.0	1	0	1.0	0	529	0	0	0	unknown
5	1	9	30	67101	5896	0.7424657166702672	0	1.0	1124.4989719998557	0.0			0	1.0	1	0	1.0	0	530	0	0	0	unknown
5	1	9	31	49887	7390	0.7425120119005441	0	1.0	938.940525011276	0.0			0	1.0	1	0	1.0	0	531	0	0	0	unknown
5	1	9	32	52867	5139	0.7425582996802405	0	1.0	1273.7735690025147	0.0			0	1.0	1	0	1.0	0	532	0	0	0	unknown
5	1	9	33	18445	2320	0.7426046010805293	0	1.0	1119.678467992344	0.0			0	1.0	1	0	1.0	0	533	0	0	0	unknown
5	1	9	34	67138	6169	0.7426508917706087	0	1.0	1363.5743119957624	0.0			0	1.0	1	0	1.0	0	534	0	0	0	unknown
5	1	9	35	50992	4523	0.7426971851382403	1	1.0	2534.1932030132734	0.0	522.0		1	1.0	0	1	2.0	0	535	0	0	0	unknown
5	1	9	36	58748	7240	0.7427897742018102	0	1.0	914.976681000553	0.0			0	1.0	1	0	1.0	0	536	0	0	0	unknown
5	1	9	37	26396	6069	0.7428360632620751	0	1.0	708.2256729918299	0.0			0	1.0	1	0	1.0	0	537	0	0	0	unknown
5	1	9	38	33942	6817	0.7428823692025616	0	1.0	1040.0965129956603	0.0			0	1.0	1	0	1.0	0	538	0	0	0	unknown
5	1	9	39	18445	2320	0.7429286594269797	1	1.0	1066.7926390015054	0.0	5.0		1	1.0	0	1	2.0	0	539	0	0	0	unknown
5	1	9	40	16328	3951	0.7429749567527323	1	0.0	937.3766159988008	0.0	291.0		1	0.0	1	0	1.0	0	540	0	0	0	unknown
5	1	9	41	69310	7568	0.7430212465114892	0	1.0	1536.796783999307	0.0			0	1.0	1	0	1.0	0	541	0	0	0	unknown
5	1	9	42	70594	7447	0.7430675334762781	0	1.0	1506.5526370017324	0.0			0	1.0	1	0	1.0	0	542	0	0	0	unknown
5	1	9	43	21366	6540	0.7431138353422284	0	1.0	1419.4109730015043	0.0			0	1.0	1	0	1.0	0	543	0	0	0	unknown
5	1	9	44	6818	2255	0.7431601296411827	0	1.0	1205.724213999929	0.0			0	1.0	1	0	1.0	0	544	0	0	0	unknown
5	1	9	45	57709	9088	0.7432527182390913	0	1.0	1530.2368619886693	0.0			0	1.0	1	0	1.0	0	545	0	0	0	unknown
5	1	9	46	68047	9124	0.7432990068336948	0	1.0	1912.975226994604	0.0			0	1.0	1	0	1.0	0	546	0	0	0	unknown
5	1	9	47	2012	3293	0.7433453083503991	1	1.0	917.4977489892625	0.0	158.0	187.0	1	1.0	0	1	2.0	0	547	0	0	0	unknown
5	1	9	48	46673	2821	0.7433916026493534	0	1.0	978.8527230120961	0.0			0	1.0	1	0	1.0	0	548	0	0	0	unknown
5	1	9	49	35649	4095	0.7434378338512033	0	1.0	1081.706747005228	0.0			0	1.0	1	0	1.0	0	549	0	0	0	unknown
5	1	9	50	36294	4751	0.7434841266367584	1	1.0	1200.477388993022	0.0	328.0		1	1.0	0	1	2.0	0	550	0	0	0	unknown
5	1	9	51	4449	2755	0.7435304201208055	1	1.0	1706.4085520105436	0.0	67.0		1	1.0	0	1	2.0	0	551	0	0	0	unknown
5	1	9	52	4419	7655	0.7435767229180783	0	1.0	1022.6613849954446	0.0			0	1.0	1	0	1.0	0	552	0	0	0	unknown
5	1	9	53	57363	3807	0.7436230204766616	0	1.0	1260.639763000654	0.0			0	1.0	1	0	1.0	0	553	0	0	0	unknown
5	1	9	54	51366	3457	0.7436693176859989	1	1.0	871.2735860026442	0.0	267.0	353.0	1	1.0	0	1	2.0	0	554	0	0	0	unknown
5	1	9	55	70235	8109	0.7437619037227705	1	1.0	958.8146919995779	0.0	115.0		1	1.0	0	1	2.0	0	555	0	0	0	unknown
5	1	9	56	63436	6054	0.7438082091975957	0	1.0	1007.9053470108192	0.0			0	1.0	1	0	1.0	0	556	0	0	0	unknown
5	1	9	57	1552	9508	0.7438545082695782	0	1.0	1312.6125440030592	0.0			0	1.0	1	0	1.0	0	557	0	0	0	unknown
5	1	9	58	64356	3768	0.7439007979119197	0	1.0	1540.5374229885635	0.0			0	1.0	1	0	1.0	0	558	0	0	0	unknown
5	1	9	59	30993	6410	0.7439470945391803	0	1.0	809.2457159946208	0.0			0	1.0	1	0	1.0	0	559	0	0	0	unknown
5	1	9	60	24189	2328	0.7439934017602354	0	1.0	1143.1577110051876	0.0			0	1.0	1	0	1.0	0	560	0	0	0	unknown
5	1	9	61	57363	3807	0.7440396904712542	1	1.0	905.2037449873752	0.0	7.0		1	1.0	0	1	2.0	0	561	0	0	0	unknown
5	1	9	62	60850	7697	0.7440859886119142	0	1.0	1274.2071820102865	0.0			0	1.0	1	0	1.0	0	562	0	0	0	unknown
5	1	9	63	8195	8816	0.7441322865197435	0	1.0	1204.571880996809	0.0			0	1.0	1	0	1.0	0	563	0	0	0	unknown
5	1	10	1	40387	3444	0.7456366795813664	1	1.0	788.5331220022636	0.0	314.0	482.0	1	1.0	0	1	2.0	0	564	0	0	0	unknown
5	1	10	2	1579	7744	0.7456829777220264	0	1.0	1140.8752819988877	0.0			0	1.0	1	0	1.0	0	565	0	0	0	unknown
5	1	10	3	59077	6106	0.7457292689941823	1	1.0	1055.769422004232	0.0	107.0	295.0	1	1.0	0	1	2.0	0	566	0	0	0	unknown
5	1	10	4	39413	1126	0.7457755593350157	0	1.0	802.1796380053273	0.0			0	1.0	1	0	1.0	0	567	0	0	0	unknown
5	1	10	5	52362	7339	0.745821853284724	0	1.0	1030.1801299938231	0.0			0	1.0	1	0	1.0	0	568	0	0	0	unknown
5	1	10	6	25576	2913	0.7458681587595491	0	1.0	1172.1861379919571	0.0			0	1.0	1	0	1.0	0	569	0	0	0	unknown
5	1	10	7	72319	7572	0.7459144425811246	0	1.0	1170.4377599962754	0.0			0	1.0	1	0	1.0	0	570	0	0	0	unknown
5	1	10	8	24132	8516	0.745960630942136	1	1.0	763.1365340057527	0.0	202.0		1	1.0	0	1	2.0	0	571	0	0	0	unknown
5	1	10	9	60020	6139	0.7460069290827959	0	1.0	1129.9405590107199	0.0			0	1.0	1	0	1.0	0	572	0	0	0	unknown
5	1	10	10	20188	9261	0.7460995150031521	0	1.0	1565.0189599982696	0.0			0	1.0	1	0	1.0	0	573	0	0	0	unknown
5	1	10	11	65208	8315	0.7461458113975822	1	1.0	782.3229870118665	0.0	167.0	175.0	1	1.0	0	1	2.0	0	574	0	0	0	unknown
5	1	10	12	3627	14	0.7461921034846454	0	1.0	1003.291070999694	0.0			0	1.0	1	0	1.0	0	575	1	0	1	new
5	1	10	13	34969	5660	0.746238400810398	1	1.0	1123.0331349943299	0.0	178.0		1	1.0	0	1	2.0	0	576	0	0	0	unknown
5	1	10	14	22525	6692	0.7462846860289573	1	1.0	744.6704260073601	0.0	143.0	398.0	1	1.0	0	1	2.0	0	577	0	0	0	unknown
5	1	10	15	7847	4211	0.7463309892918913	0	1.0	1052.8680740098935	0.0			0	1.0	1	0	1.0	0	578	0	0	0	unknown
5	1	10	16	50310	9571	0.7463772830087692	0	1.0	890.8439489896409	0.0			0	1.0	1	0	1.0	0	579	0	0	0	unknown
5	1	10	17	24064	9570	0.7464235718362033	0	1.0	1155.874952004524	0.0			0	1.0	1	0	1.0	0	580	0	0	0	unknown
5	1	10	18	4173	4400	0.7464698640396819	0	1.0	1076.3871509989256	0.0			0	1.0	1	0	1.0	0	581	0	0	0	unknown
5	1	10	19	68753	8200	0.7465161645086482	0	1.0	1324.559558997862	0.0			0	1.0	1	0	1.0	0	582	0	0	0	unknown
5	1	10	20	9350	5345	0.7465624583419412	0	1.0	751.0704400046961	0.0			0	1.0	1	0	1.0	0	583	0	0	0	unknown
5	1	10	21	26357	4585	0.7466550403041765	0	1.0	832.565632998012	0.0			0	1.0	1	0	1.0	0	584	0	0	0	unknown
5	1	10	22	68725	5081	0.7467013420537114	1	1.0	828.4005309978965	0.0	67.0	324.0	1	1.0	0	1	2.0	0	585	0	0	0	unknown
5	1	10	23	53399	7247	0.7467476273886859	0	1.0	935.7937690074322	0.0			0	1.0	1	0	1.0	0	586	0	0	0	unknown
5	1	10	24	19682	5960	0.7467939249472691	0	1.0	1264.3581299926154	0.0			0	1.0	1	0	1.0	0	587	0	0	0	unknown
5	1	10	25	65105	6843	0.7468402157537639	1	1.0	673.3219290035777	0.0	244.0	485.0	1	1.0	0	1	2.0	0	588	0	0	0	unknown
5	1	10	26	52974	2726	0.7468865185510367	0	1.0	1243.928872005199	0.0			0	1.0	1	0	1.0	0	589	0	0	0	unknown
5	1	10	27	25424	4285	0.7469328057486563	1	1.0	722.1373630018206	0.0	141.0	403.0	1	1.0	0	1	2.0	0	590	0	0	0	unknown
5	1	10	28	56186	7449	0.7469791010953485	0	1.0	906.0374859982403	0.0			0	1.0	1	0	1.0	0	591	0	0	0	unknown
5	1	10	29	12283	3909	0.7470253926003351	0	1.0	1245.6897040101467	0.0			0	1.0	1	0	1.0	0	592	0	0	0	unknown
5	1	10	30	11197	6194	0.7471179902786388	0	1.0	1002.1568490046774	0.0			0	1.0	1	0	1.0	0	593	0	0	0	unknown
5	1	10	31	19994	3376	0.7471641870215535	1	0.0	1111.9941959914283	0.0	484.0		1	0.0	1	0	1.0	0	594	0	0	0	unknown
5	1	10	32	29390	3500	0.7472104803891852	0	1.0	912.9543019953416	0.0			0	1.0	1	0	1.0	0	595	0	0	0	unknown
5	1	10	33	58299	6752	0.747256773058325	0	1.0	1044.320920991595	0.0			0	1.0	1	0	1.0	0	596	0	0	0	unknown
5	1	10	34	16070	4739	0.7473030659602954	0	1.0	1302.9869229940232	0.0			0	1.0	1	0	1.0	0	597	0	0	0	unknown
5	1	10	35	42481	3456	0.747349354904145	0	1.0	2124.186991000897	0.0			0	1.0	1	0	1.0	0	598	0	0	0	unknown
5	1	10	36	19182	230	0.7473956570029258	1	1.0	767.9519619996425	0.0	89.0	164.0	1	1.0	0	1	2.0	0	599	1	0	3	easy
5	1	10	37	45596	616	0.7474419443169608	1	1.0	807.4037429905729	0.0	253.0		1	1.0	0	1	2.0	0	600	1	1	2	easy
5	1	10	38	14529	173	0.7474882423412054	0	1.0	916.7391740047603	0.0			0	1.0	1	0	1.0	0	601	1	0	1	new
5	1	10	39	5053	2163	0.7475345400162041	0	1.0	1002.7109869988636	0.0			0	1.0	1	0	1.0	0	602	0	0	0	unknown
5	1	10	40	61799	9008	0.7476271208142861	0	1.0	1458.388492988888	0.0			0	1.0	1	0	1.0	0	603	0	0	0	unknown
5	1	10	41	7044	4465	0.7476734213996677	0	1.0	811.0016340069706	0.0			0	1.0	1	0	1.0	0	604	0	0	0	unknown
5	1	10	42	25257	7198	0.7477197132539004	0	1.0	1387.4192670045886	0.0			0	1.0	1	0	1.0	0	605	0	0	0	unknown
5	1	10	43	5884	5817	0.747766010928899	0	1.0	1077.4033729976509	0.0			0	1.0	1	0	1.0	0	606	0	0	0	unknown
5	1	10	44	34923	6148	0.7478123052278532	0	1.0	883.8830440072343	0.0			0	1.0	1	0	1.0	0	607	0	0	0	unknown
5	1	10	45	51985	4356	0.7478585990611463	0	0.0	1422.358415002236	0.0			0	0.0	0	1	2.0	0	608	0	0	0	unknown
5	1	10	46	32942	4186	0.7479048965033143	1	1.0	1903.7618170114	0.0	494.0		1	1.0	0	1	2.0	0	609	0	0	0	unknown
5	1	10	47	1701	1703	0.7479511816054581	1	1.0	1519.5369549910536	0.0	570.0		1	1.0	0	1	2.0	0	610	0	0	0	unknown
5	1	10	48	12550	9294	0.747997474274598	0	1.0	1109.772548996261	0.0			0	1.0	1	0	1.0	0	611	0	0	0	unknown
5	1	10	49	38908	6311	0.7480437705526128	1	1.0	779.3014709895942	0.0	133.0	256.0	1	1.0	0	1	2.0	0	612	0	0	0	unknown
5	1	10	50	23477	9492	0.7480900693917647	0	1.0	869.5257639919873	0.0			0	1.0	1	0	1.0	0	613	0	0	0	unknown
5	1	10	51	72038	8688	0.7481363592669367	0	1.0	885.6761909992201	0.0			0	1.0	1	0	1.0	0	614	0	0	0	unknown
5	1	10	52	46949	3319	0.7482289528707042	0	1.0	883.4497479983838	0.0			0	1.0	2	0	1.0	0	615	0	0	0	unknown
5	1	10	53	19799	1769	0.7482752449577674	0	1.0	1203.2607169967375	0.0			0	1.0	1	0	1.0	0	616	0	0	0	unknown
5	1	10	54	39727	8140	0.7483215398387983	0	1.0	1012.8858190000756	0.0			0	1.0	1	0	1.0	0	617	0	0	0	unknown
5	1	10	55	32944	7561	0.7483678389107808	0	1.0	1026.7776209948352	0.0			0	1.0	1	0	1.0	0	618	0	0	0	unknown
5	1	10	56	17185	2304	0.748414125177078	0	1.0	1214.5156230108112	0.0			0	1.0	1	0	1.0	0	619	0	0	0	unknown
5	1	10	57	24995	2481	0.7484604190103709	0	1.0	981.6475490079027	0.0			0	1.0	1	0	1.0	0	620	0	0	0	unknown
5	1	10	58	36525	2880	0.7485066237859427	1	1.0	1055.9009380085627	0.0	402.0		1	1.0	0	1	2.0	0	621	0	0	0	unknown
5	1	10	59	26973	2186	0.7485529072582721	1	1.0	802.6929019979434	0.0	162.0		1	1.0	0	1	2.0	0	622	0	0	0	unknown
5	1	10	60	70850	2935	0.7485992092406377	0	1.0	2329.703869007062	0.0			0	1.0	1	0	1.0	0	623	0	0	0	unknown
5	1	10	61	16850	5193	0.7486455036560073	0	1.0	990.9769779915223	0.0			0	1.0	1	0	1.0	0	624	0	0	0	unknown
5	1	10	62	9918	116	0.7486917971400544	1	1.0	963.2989419915248	0.0	267.0		1	1.0	0	1	2.0	0	625	1	0	2	easy
5	1	11	1	30362	9647	0.7503031144151464	0	1.0	1410.9063990035793	0.0			0	1.0	1	0	1.0	0	626	0	0	0	unknown
5	1	11	2	68026	1791	0.7503494063857942	0	1.0	1430.1840560074197	0.0			0	1.0	1	0	1.0	0	627	0	0	0	unknown
5	1	11	3	63463	1407	0.7503957011504098	0	1.0	1287.3416250076843	0.0			0	1.0	1	0	1.0	0	628	0	0	0	unknown
5	1	11	4	56043	770	0.7504419951001182	0	1.0	1252.1224770025583	0.0			0	1.0	1	0	1.0	0	629	1	0	1	new
5	1	11	5	49438	2830	0.7504882885841652	0	1.0	801.9502749957611	0.0			0	1.0	1	0	1.0	0	630	0	0	0	unknown
5	1	11	6	46038	2129	0.7505345857935026	0	1.0	909.2075920052592	0.0			0	1.0	1	0	1.0	0	631	0	0	0	unknown
5	1	11	7	19213	2579	0.7505808765999972	0	1.0	1392.1469259948935	0.0			0	1.0	1	0	1.0	0	632	0	0	0	unknown
5	1	11	8	39664	3014	0.7506271704332903	1	1.0	992.8215840045597	0.0	444.0	540.0	1	1.0	0	1	2.0	0	633	0	0	0	unknown
5	1	11	9	34239	459	0.7506734662456437	0	0.0	2143.7867259955965	0.0			0	0.0	0	1	2.0	0	634	1	0	1	new
5	1	11	10	7820	2642	0.7507197607774287	0	1.0	1302.6359020004747	0.0			0	1.0	1	0	1.0	0	635	0	0	0	unknown
5	1	11	11	72184	8996	0.7507660493720322	0	1.0	1012.8985339979408	0.0			0	1.0	1	0	1.0	0	636	0	0	0	unknown
5	1	11	12	32305	5745	0.7508123512379825	1	1.0	804.5622619974893	0.0	114.0		1	1.0	0	1	2.0	0	637	0	0	0	unknown
5	1	11	13	30278	3410	0.7509049319196492	0	1.0	957.737877004547	0.0			0	1.0	1	0	1.0	0	638	0	0	0	unknown
5	1	11	14	34280	8116	0.750951227499172	0	1.0	1367.987186007667	0.0			0	1.0	1	0	1.0	0	639	0	0	0	unknown
5	1	11	15	58775	5733	0.7509974295971915	1	1.0	842.2663050005212	0.0	114.0		1	1.0	0	1	2.0	0	640	0	0	0	unknown
5	1	11	16	16328	3951	0.7510437183082103	1	1.0	825.4662270046538	0.0	100.0	392.0	1	1.0	0	1	2.0	0	641	0	0	0	unknown
5	1	11	17	56605	1482	0.7510900099296122	0	0.0	2268.8230039930204	0.0			0	0.0	0	1	2.0	0	642	0	0	0	unknown
5	1	11	18	29294	4599	0.7511363108642399	0	1.0	1583.640736003872	0.0			0	1.0	1	0	1.0	0	643	0	0	0	unknown
5	1	11	19	33022	4040	0.7511826078407466	0	1.0	1071.3303689990423	0.0			0	1.0	1	0	1.0	0	644	0	0	0	unknown
5	1	11	20	25416	4982	0.7512288979487493	0	1.0	1264.8868550022598	0.0			0	1.0	1	0	1.0	0	645	0	0	0	unknown
5	1	11	21	72878	8474	0.751275189453736	0	1.0	1285.9812149981735	0.0			0	1.0	1	0	1.0	0	646	0	0	0	unknown
5	1	11	22	53109	9657	0.75132148549892	1	1.0	984.2323409975505	0.0	321.0		1	1.0	0	1	2.0	0	647	0	0	0	unknown
5	1	11	23	21646	6168	0.7514140685088933	0	1.0	1576.109069996164	0.0			0	1.0	1	0	1.0	0	648	0	0	0	unknown
5	1	11	24	42898	6537	0.7514603751478716	0	1.0	962.8163549932652	0.0			0	1.0	1	0	1.0	0	649	0	0	0	unknown
5	1	11	25	27204	4759	0.751506661530584	0	1.0	1889.6562540030568	0.0			0	1.0	1	0	1.0	0	650	0	0	0	unknown
5	1	11	26	28655	5514	0.751552959671244	1	1.0	988.6344440019456	0.0	171.0		1	1.0	0	1	2.0	0	651	0	0	0	unknown
5	1	11	27	1591	4620	0.7515992528060451	0	1.0	1891.372626007069	0.0			0	1.0	1	0	1.0	0	652	0	0	0	unknown
5	1	11	28	59169	7333	0.7516455452423542	0	1.0	1103.1765799998539	0.0			0	1.0	1	0	1.0	0	653	0	0	0	unknown
5	1	11	29	3416	1069	0.751691838609986	0	1.0	1344.2967459995998	0.0			0	1.0	1	0	1.0	0	654	0	0	0	unknown
5	1	11	30	10100	1218	0.7517381354700773	0	1.0	1528.3741690072927	0.0			0	1.0	1	0	1.0	0	655	0	0	0	unknown
5	1	11	31	19167	1512	0.751784429186955	0	1.0	1482.2898499987787	0.0			0	1.0	1	0	1.0	0	656	0	0	0	unknown
5	1	11	32	29294	4599	0.7518307234859094	1	1.0	805.6816530006472	0.0	13.0		1	1.0	0	1	2.0	0	657	0	0	0	unknown
5	1	11	33	63567	1040	0.7518770185997709	0	1.0	1485.3046229982283	0.0			0	1.0	1	0	1.0	0	658	0	0	0	unknown
5	1	11	34	4809	1624	0.751923314994201	1	1.0	954.1418699955102	0.0	139.0		1	1.0	0	1	2.0	0	659	0	0	0	unknown
5	1	11	35	65790	1808	0.7520159007981418	1	1.0	1068.4786540077766	0.0	333.0		1	1.0	0	1	2.0	0	660	0	0	0	unknown
5	1	11	36	12245	4690	0.7520621946314349	0	1.0	1217.3934870079393	0.0			0	1.0	1	0	1.0	0	661	0	0	0	unknown
5	1	11	37	25356	5019	0.7521084840409457	0	1.0	1489.8972200026035	0.0			0	1.0	2	0	1.0	0	662	0	0	0	unknown
5	1	11	38	763	5219	0.7521547748474404	0	1.0	1310.9274269954767	0.0			0	1.0	1	0	1.0	0	663	0	0	0	unknown
5	1	11	39	9578	9102	0.752201075782068	0	1.0	1003.9311779983108	0.0			0	1.0	1	0	1.0	0	664	0	0	0	unknown
5	1	11	40	16375	9621	0.7522472746204584	1	1.0	1133.3029630040983	0.0	547.0		1	1.0	0	1	2.0	0	665	0	0	0	unknown
5	1	11	41	8182	5874	0.7522935670567676	0	1.0	1212.8692410042277	0.0			0	1.0	1	0	1.0	0	666	0	0	0	unknown
5	1	11	42	14122	169	0.7523398663615807	0	1.0	1201.403940009186	0.0			0	1.0	1	0	1.0	0	667	1	0	1	new
5	1	11	43	57709	9088	0.7523861565859988	1	1.0	902.9033260012512	0.0	122.0		1	1.0	0	1	2.0	0	668	0	0	0	unknown
5	1	11	44	68993	4637	0.7524787422735244	0	1.0	1536.5003320039248	0.0			0	1.0	1	0	1.0	0	669	0	0	0	unknown
5	1	11	45	55019	4522	0.752525040297769	0	1.0	989.2540779983393	0.0			0	1.0	1	0	1.0	0	670	0	0	0	unknown
5	1	11	46	69350	7224	0.7525713327340781	0	1.0	928.4847009985242	0.0			0	1.0	1	0	1.0	0	671	0	0	0	unknown
5	1	11	47	37639	3822	0.7526176280807703	0	1.0	1305.0432500021996	0.0			0	1.0	1	0	1.0	0	672	0	0	0	unknown
5	1	11	48	7594	6407	0.7526639229618012	0	1.0	1803.5491470072884	0.0			0	1.0	1	0	1.0	0	673	0	0	0	unknown
5	1	11	49	28188	8393	0.7527102207532153	0	1.0	1613.400749003631	0.0			0	1.0	1	0	1.0	0	674	0	0	0	unknown
5	1	11	50	34280	8116	0.7527565088821575	1	1.0	852.5366170069901	0.0	35.0		1	1.0	0	1	2.0	0	675	0	0	0	unknown
5	1	11	51	25675	2044	0.752802803996019	0	1.0	847.3687700025039	0.0			0	1.0	1	0	1.0	0	676	0	0	0	unknown
5	1	11	52	10588	3862	0.7528490915428847	1	1.0	2888.255098994705	1.0	247.0		1	1.0	1	1	2.0	0	677	0	0	0	unknown
5	1	11	53	12138	8019	0.7528953878208994	0	1.0	1034.0241359954234	0.0			0	1.0	1	0	1.0	0	678	0	0	0	unknown
5	1	11	54	63463	1407	0.7529879773501306	1	1.0	1002.0496100041782	0.0	50.0		1	1.0	0	1	2.0	0	679	0	0	0	unknown
5	1	11	55	64906	7367	0.7530342686222866	1	0.0	1403.5895590059226	0.0	589.0		1	0.0	1	0	1.0	0	680	0	0	0	unknown
5	1	11	56	51430	8706	0.7530805624555796	0	1.0	879.0721700061112	0.0			0	1.0	1	0	1.0	0	681	0	0	0	unknown
5	1	11	57	12939	2753	0.753126859315671	0	1.0	2472.954989003483	0.0			0	1.0	1	0	1.0	0	682	0	0	0	unknown
5	1	11	58	52963	3802	0.7531731537310405	0	1.0	820.1805300050182	0.0			0	1.0	1	0	1.0	0	683	0	0	0	unknown
5	1	11	59	53109	9657	0.7532194539671763	1	1.0	602.4655949877342	0.0	36.0	358.0	1	1.0	0	1	2.0	0	684	0	0	0	unknown
5	1	11	60	31587	5714	0.7532657459378242	1	1.0	1002.2510080016218	0.0	191.0	390.0	1	1.0	0	1	2.0	0	685	0	0	0	unknown
5	1	11	61	26352	347	0.7533120410516858	0	1.0	1278.4789230063325	0.0			0	1.0	1	0	1.0	0	686	1	0	1	new
5	1	11	62	55019	4522	0.7533583285985515	1	1.0	828.5031900013565	0.0	16.0		1	1.0	0	1	2.0	0	687	0	0	0	unknown
5	1	11	63	32555	5102	0.7534046282526105	0	1.0	889.890001999447	0.0			0	1.0	2	0	1.0	0	688	0	0	0	unknown
5	1	12	1	65246	1122	0.7549477579304948	0	1.0	1301.729858998442	0.0			0	1.0	1	0	1.0	0	689	0	0	0	unknown
5	1	12	2	4787	36	0.7549940524622797	1	1.0	1712.2259570023743	0.0	286.0		1	1.0	0	1	2.0	0	690	1	0	2	easy
5	1	12	3	56534	5273	0.7550403439672663	0	1.0	711.0839429951739	0.0			0	1.0	1	0	1.0	0	691	0	0	0	unknown
5	1	12	4	64775	9335	0.7550866336096078	1	1.0	721.5161879867081	0.0	269.0		1	1.0	0	1	2.0	0	692	0	0	0	unknown
5	1	12	5	30278	3410	0.7551329288398846	1	1.0	840.5089660082012	0.0	54.0		1	1.0	0	1	2.0	0	693	0	0	0	unknown
5	1	12	6	48667	5670	0.7551792267477139	0	1.0	1505.2125799993519	0.0			0	1.0	1	0	1.0	0	694	0	0	0	unknown
5	1	12	7	67003	5449	0.7552255203481762	0	1.0	1822.06111898995	0.0			0	1.0	1	0	1.0	0	695	0	0	0	unknown
5	1	12	8	34530	4580	0.7552718186052516	0	1.0	720.9023659961531	0.0			0	1.0	1	0	1.0	0	696	0	0	0	unknown
5	1	12	9	59224	1994	0.7553181095281615	0	0.0	1209.4551370100817	0.0			0	0.0	0	1	2.0	0	697	0	0	0	unknown
5	1	12	10	66877	1386	0.7553644052240998	0	1.0	884.0323209878989	0.0			0	1.0	1	0	1.0	0	698	0	0	0	unknown
5	1	12	11	41844	9828	0.7554107037140056	0	1.0	1402.083399007097	0.0			0	1.0	1	0	1.0	0	699	0	0	0	unknown
5	1	12	12	59956	9484	0.755456990445964	1	1.0	763.4177739964798	0.0	371.0		1	1.0	0	1	2.0	0	700	0	0	0	unknown
5	1	12	13	13788	1490	0.755503288237378	0	1.0	811.7201299901353	0.0			0	1.0	1	0	1.0	0	701	0	0	0	unknown
5	1	12	14	11160	131	0.7555958770681171	0	1.0	2260.7536709983838	0.0			0	1.0	1	0	1.0	0	702	1	0	1	new
5	1	12	15	44432	5518	0.755642170086503	0	1.0	1707.1414600068235	0.0			0	1.0	1	0	1.0	0	703	0	0	0	unknown
5	1	12	16	26945	1103	0.7556884658988565	0	0.0	1986.8607950047588	0.0			0	0.0	0	1	2.0	0	704	0	0	0	unknown
5	1	12	17	70191	5354	0.7557347588008269	0	1.0	1981.8784300005063	0.0			0	1.0	1	0	1.0	0	705	0	0	0	unknown
5	1	12	18	4320	8405	0.7557810501893982	0	1.0	1104.1299999924377	0.0			0	1.0	1	0	1.0	0	706	0	0	0	unknown
5	1	12	19	63946	4272	0.7558273473987355	0	1.0	1107.8033130033873	0.0			0	1.0	1	0	1.0	0	707	0	0	0	unknown
5	1	12	20	2779	9513	0.7558736372739076	0	1.0	1584.1006379923783	0.0			0	1.0	2	0	1.0	0	708	0	0	0	unknown
5	1	12	21	37924	7408	0.7559199352981522	0	1.0	712.3697760107461	0.0			0	1.0	1	0	1.0	0	709	0	0	0	unknown
5	1	12	22	25576	2913	0.7559662241255865	1	1.0	1020.1879650121554	0.0	140.0		1	1.0	0	1	2.0	0	710	0	0	0	unknown
5	1	12	23	35221	1834	0.7560124201700091	0	1.0	844.783786989865	0.0			0	1.0	1	0	1.0	0	711	0	0	0	unknown
5	1	12	24	15191	7141	0.7561050162184983	0	1.0	1522.3602409969317	0.0			0	1.0	1	0	1.0	0	712	0	0	0	unknown
5	1	12	25	20444	1784	0.7561513150576502	0	1.0	1627.6606830069795	0.0			0	1.0	1	0	1.0	0	713	0	0	0	unknown
5	1	12	26	27244	3880	0.7561976046999916	0	1.0	1188.4917999996103	0.0			0	1.0	1	0	1.0	0	714	0	0	0	unknown
5	1	12	27	63463	1407	0.7562438970198854	1	1.0	623.1386989966268	0.0	35.0	86.0	1	1.0	0	1	2.0	0	715	0	0	0	unknown
5	1	12	28	2175	5778	0.7562901898054406	0	1.0	1466.3980829936916	0.0			0	1.0	1	0	1.0	0	716	0	0	0	unknown
5	1	12	29	71845	5306	0.7563364861998707	0	1.0	1292.3318090033715	0.0			0	1.0	1	0	1.0	0	717	0	0	0	unknown
5	1	12	30	54024	6677	0.756382780149579	0	1.0	2242.4444149946794	0.0			0	1.0	1	0	1.0	0	718	0	0	0	unknown
5	1	12	31	56435	6378	0.7564290734007953	0	1.0	1003.3993789984378	0.0			0	1.0	1	0	1.0	0	719	0	0	0	unknown
5	1	12	32	29010	2451	0.7564753709593787	1	1.0	702.5021019944688	0.0	305.0		1	1.0	0	1	2.0	0	720	0	0	0	unknown
5	1	12	33	37639	3822	0.7565216671209782	1	1.0	837.3804200091398	0.0	48.0		1	1.0	0	1	2.0	0	721	0	0	0	unknown
5	1	12	34	25426	5870	0.756614250713028	0	1.0	2649.583047008491	0.0			0	1.0	1	0	1.0	0	722	0	0	0	unknown
5	1	12	35	70054	2567	0.7566605460597202	0	1.0	716.257959997165	0.0			0	1.0	1	0	1.0	0	723	0	0	0	unknown
5	1	12	36	44457	1446	0.7567068431526423	0	1.0	705.4551269975491	0.0			0	1.0	1	0	1.0	0	724	0	0	0	unknown
5	1	12	37	14529	173	0.7567531282547861	1	1.0	703.1638839980587	0.0	123.0		1	1.0	0	1	2.0	0	725	1	0	2	easy
5	1	12	38	14885	5360	0.7567994281416758	0	1.0	1155.854176991852	0.0			0	1.0	1	0	1.0	0	726	0	0	0	unknown
5	1	12	39	21646	6168	0.7568457224406301	1	1.0	826.2063159927493	0.0	78.0		1	1.0	0	1	2.0	0	727	0	0	0	unknown
5	1	12	40	29294	4599	0.7568920162739232	1	1.0	759.4171590026235	0.0	70.0	84.0	1	1.0	0	1	2.0	0	728	0	0	0	unknown
5	1	12	41	18672	4614	0.7569383108057081	0	1.0	1128.3710909920046	0.0			0	1.0	1	0	1.0	0	729	0	0	0	unknown
5	1	12	42	18711	8417	0.7569846048718318	0	1.0	1342.433758007246	0.0			0	1.0	1	0	1.0	0	730	0	0	0	unknown
5	1	12	43	14400	2034	0.7570771938189864	0	1.0	2312.861974001862	0.0			0	1.0	1	0	1.0	0	731	0	0	0	unknown
5	1	12	44	29838	398	0.7571234827628359	0	1.0	1538.6665900005028	0.0			0	1.0	1	0	1.0	0	732	1	0	1	new
5	1	12	45	7647	8629	0.7571697740349917	0	1.0	1191.6990889876615	0.0			0	1.0	1	0	1.0	0	733	0	0	0	unknown
5	1	12	46	26266	1411	0.7572160788113251	0	1.0	815.9675930073716	0.0			0	1.0	1	0	1.0	0	734	0	0	0	unknown
5	1	12	47	863	2152	0.7572622746229171	0	1.0	1066.4963799936231	0.0			0	1.0	1	0	1.0	0	735	0	0	0	unknown
5	1	12	48	64835	6858	0.7573085686890408	0	1.0	1366.4141009940067	0.0			0	1.0	1	0	1.0	0	736	0	0	0	unknown
5	1	12	49	973	9391	0.757354864035733	0	1.0	1390.0406070024471	0.0			0	1.0	1	0	1.0	0	737	0	0	0	unknown
5	1	12	50	70191	5354	0.7574011544929817	1	1.0	723.2045190030477	0.0	32.0		1	1.0	0	1	2.0	0	738	0	0	0	unknown
5	1	12	51	58145	805	0.7574474497232586	1	1.0	787.1203690010589	0.0	240.0		1	1.0	0	1	2.0	0	739	1	0	2	easy
5	1	12	52	35028	4665	0.7575400286586955	0	1.0	1451.1115170025732	0.0			0	1.0	1	0	1.0	0	740	0	0	0	unknown
5	1	12	53	32944	7561	0.7575863252859562	1	1.0	949.5892059931066	0.0	122.0		1	1.0	0	1	2.0	0	741	0	0	0	unknown
5	1	12	54	55098	8160	0.7576326273847371	0	1.0	803.7892269931035	0.0			0	1.0	1	0	1.0	0	742	0	0	0	unknown
5	1	12	55	44896	2161	0.7576789195882156	0	1.0	1087.2457869991194	0.0			0	1.0	1	0	1.0	0	743	0	0	0	unknown
5	1	12	56	34341	7903	0.7577252135379239	0	1.0	1550.4224370088195	0.0			0	1.0	1	0	1.0	0	744	0	0	0	unknown
5	1	12	57	42692	7560	0.7577715016668662	0	1.0	878.6990900116507	0.0			0	1.0	1	0	1.0	0	745	0	0	0	unknown
5	1	12	58	41698	2370	0.7578178042313084	0	1.0	1002.8697420057142	0.0			0	1.0	1	0	1.0	0	746	0	0	0	unknown
5	1	12	59	62174	2563	0.7578640991123393	0	1.0	1202.1864270063816	0.0			0	1.0	1	0	1.0	0	747	0	0	0	unknown
5	1	12	60	48682	670	0.7579103868920356	0	1.0	1516.5686370019102	0.0			0	1.0	1	0	1.0	0	748	1	0	1	new
5	1	12	61	49091	9409	0.7579566859640181	0	1.0	720.8247809903696	0.0			0	1.0	1	0	1.0	0	749	0	0	0	unknown
5	1	12	62	63884	9681	0.758002980146557	0	1.0	2059.6686380013125	0.0			0	1.0	1	0	1.0	0	750	0	0	0	unknown
5	2	1	1	42881	8819	7.695414638728834	0	1.0	1266.0318620037287	0.0			0	1.0	1	0	1.0	0	751	0	0	0	unknown
5	2	1	2	69007	2972	7.695460939663462	0	1.0	1413.8091700151563	0.0			0	1.0	1	0	1.0	0	752	0	0	0	unknown
5	2	1	3	14595	175	7.6955072288401425	0	1.0	1302.179315011017	0.0			0	1.0	1	0	1.0	0	753	1	0	1	new
5	2	1	4	67138	6169	7.695553532917984	1	0.0	1843.1196290184744	0.0	219.0		0	1.0	1	0	1.0	0	754	0	0	0	unknown
5	2	1	5	15006	1591	7.695599819067866	0	1.0	1145.57330601383	0.0			0	1.0	1	0	1.0	0	755	0	0	0	unknown
5	2	1	6	61877	4692	7.695646120468154	0	1.0	986.3052540458739	0.0			0	1.0	1	0	1.0	0	756	0	0	0	unknown
5	2	1	7	49406	4152	7.695692403474823	0	1.0	1221.1624199990183	0.0			0	1.0	1	0	1.0	0	757	0	0	0	unknown
5	2	1	8	1793	7167	7.695738706737757	0	1.0	1438.8690759660676	0.0			0	1.0	1	0	1.0	0	758	0	0	0	unknown
5	2	1	9	7044	4465	7.695784992072731	1	0.0	1642.865835048724	0.0	154.0		0	1.0	1	0	1.0	0	759	0	0	0	unknown
5	2	1	10	54243	5313	7.69583129126113	0	1.0	972.1391259809023	0.0			0	1.0	1	0	1.0	0	760	0	0	0	unknown
5	2	1	11	24481	305	7.695877577061763	0	1.0	1790.6704749912024	0.0			0	1.0	1	0	1.0	0	761	1	0	1	new
5	2	1	12	41784	9575	7.695923887426034	1	0.0	1330.1694329711609	0.0	346.0		0	1.0	1	0	1.0	0	762	0	0	0	unknown
5	2	1	13	36975	487	7.695970168104395	0	1.0	1602.716933004558	0.0			0	1.0	1	0	1.0	0	763	1	1	1	new
5	2	1	14	4973	3997	7.696016468456945	0	1.0	1460.806771996431	0.0			0	1.0	1	0	1.0	0	764	0	0	0	unknown
5	2	1	15	49887	7390	7.696109054028056	1	0.0	2729.754108004272	0.0	233.0		0	1.0	1	0	1.0	0	765	0	0	0	unknown
5	2	1	16	71719	1277	7.696155344252474	0	1.0	983.1923899473622	0.0			0	1.0	1	0	1.0	0	766	0	0	0	unknown
5	2	1	17	10726	2195	7.69620163878426	0	1.0	1516.4580050040968	0.0			0	1.0	1	0	1.0	0	767	0	0	0	unknown
5	2	1	18	3457	5101	7.696247935877181	0	1.0	1211.8212949717415	0.0			0	1.0	1	0	1.0	0	768	0	0	0	unknown
5	2	1	19	1721	1826	7.696294230176134	0	1.0	1829.4706870219673	0.0			0	1.0	1	0	1.0	0	769	0	0	0	unknown
5	2	1	20	15006	1591	7.696340520866214	1	1.0	923.137207981199	0.0	14.0		1	1.0	0	1	2.0	0	770	0	0	0	unknown
5	2	1	21	57523	2080	7.696386819356122	0	1.0	1130.7796519831754	0.0			0	1.0	1	0	1.0	0	771	0	0	0	unknown
5	2	1	22	9863	3804	7.696433104923926	0	1.0	1316.0217850236222	0.0			0	1.0	1	0	1.0	0	772	0	0	0	unknown
5	2	1	23	5486	2773	7.696479399106465	0	1.0	1255.6143249967135	0.0			0	1.0	1	0	1.0	0	773	0	0	0	unknown
5	2	1	24	9350	5345	7.696571981185117	1	0.0	1068.8547670142725	0.0	190.0		0	1.0	1	0	1.0	0	774	0	0	0	unknown
5	2	1	25	54096	7130	7.696618184680118	1	1.0	1602.374616952147	0.0	336.0	497.0	0	0.0	0	1	2.0	0	775	0	0	0	unknown
5	2	1	26	32894	3770	7.696664475020952	1	0.0	1761.4647910231724	0.0	646.0		0	1.0	1	0	1.0	0	776	0	0	0	unknown
5	2	1	27	66877	1386	7.6967107695527375	1	1.0	1985.1767020300033	0.0	78.0		0	0.0	0	1	2.0	0	777	0	0	0	unknown
5	2	1	28	60273	9317	7.696757063968107	0	1.0	2502.483620017301	0.0			0	1.0	1	0	1.0	0	778	0	0	0	unknown
5	2	1	29	49618	8105	7.696803360246122	0	1.0	1875.61064196052	0.0			0	1.0	1	0	1.0	0	779	0	0	0	unknown
5	2	1	30	66435	8280	7.696849663043394	1	0.0	1441.8826150358655	0.0	413.0		0	1.0	1	0	1.0	0	780	0	0	0	unknown
5	2	1	31	36911	485	7.696895954315551	0	1.0	1275.057769031264	0.0			0	1.0	1	0	1.0	0	781	1	0	1	new
5	2	1	32	16703	200	7.696942242560909	0	1.0	1525.2008899697103	0.0			0	1.0	1	0	1.0	0	782	1	0	1	new
5	2	1	33	56514	9130	7.696988540585152	0	1.0	1674.8531250050291	0.0			0	1.0	1	0	1.0	0	783	0	0	0	unknown
5	2	1	34	72410	2587	7.69703483232297	0	1.0	1702.9991959570907	0.0			0	1.0	1	0	1.0	0	784	0	0	0	unknown
5	2	1	35	18752	2904	7.697081123478711	0	1.0	1209.3540100031532	0.0			0	1.0	1	0	1.0	0	785	0	0	0	unknown
5	2	1	36	5050	4239	7.697173716733232	0	1.0	1761.4573139580896	0.0			0	1.0	1	0	1.0	0	786	0	0	0	unknown
5	2	1	37	15468	8001	7.697220015805215	0	1.0	1171.170051966328	0.0			0	1.0	1	0	1.0	0	787	0	0	0	unknown
5	2	1	38	29779	3312	7.697266303934157	0	1.0	969.6194870048201	0.0			0	1.0	1	0	1.0	0	788	0	0	0	unknown
5	2	1	39	31982	6903	7.697312599862925	0	1.0	1405.6983459740875	0.0			0	1.0	1	0	1.0	0	789	0	0	0	unknown
5	2	1	40	54243	5313	7.697358888806774	1	1.0	807.6376109966078	0.0	29.0		1	1.0	0	1	2.0	0	790	0	0	0	unknown
5	2	1	41	46889	5567	7.697405183571392	0	1.0	1138.9697679551318	0.0			0	1.0	1	0	1.0	0	791	0	0	0	unknown
5	2	1	42	35538	9012	7.697451484855264	0	1.0	962.1402740012854	0.0			0	1.0	1	0	1.0	0	792	0	0	0	unknown
5	2	1	43	52584	5208	7.6974977776408195	0	1.0	1841.9166809762828	0.0			0	1.0	1	0	1.0	0	793	0	0	0	unknown
5	2	1	44	54606	3475	7.697544069844297	0	1.0	2656.087454000953	0.0			0	1.0	1	0	1.0	0	794	0	0	0	unknown
5	2	1	45	17814	2336	7.697590361931361	1	1.0	1245.9725809749216	0.0	366.0	433.0	0	0.0	0	1	2.0	0	795	0	0	0	unknown
5	2	1	46	61799	9008	7.697682950994931	1	0.0	2874.8224280425347	0.0	192.0		0	1.0	1	0	1.0	0	796	0	0	0	unknown
5	2	1	47	52879	7974	7.697729247971437	1	1.0	1201.7400459735654	0.0	333.0	539.0	0	0.0	0	1	2.0	0	797	0	0	0	unknown
5	2	1	48	15720	8441	7.6977755387779325	1	0.0	1289.1763799707403	0.0	582.0		0	1.0	1	0	1.0	0	798	0	0	0	unknown
5	2	1	49	5603	53	7.697821836569346	1	0.0	2026.3612410053609	0.0	565.0		0	1.0	1	0	1.0	0	799	1	0	2	hard
5	2	1	50	3627	14	7.697868127492256	1	0.0	1295.8093410125002	0.0	224.0		0	1.0	1	0	1.0	0	800	1	0	2	hard
5	2	1	51	6818	2255	7.697914329357445	1	0.0	1167.969819973223	0.0	256.0		0	1.0	1	0	1.0	0	801	0	0	0	unknown
5	2	1	52	12731	4096	7.6979606250533825	0	1.0	1402.3253619670868	0.0			0	1.0	1	0	1.0	0	802	0	0	0	unknown
5	2	1	53	61749	848	7.698006906313821	0	1.0	1002.5953099830076	0.0			0	1.0	1	0	1.0	0	803	1	0	1	new
5	2	1	54	20008	4139	7.69805320794694	0	1.0	1035.2168270037507	0.0			0	1.0	1	0	1.0	0	804	0	0	0	unknown
5	2	1	55	52182	9969	7.698145790142006	0	1.0	2304.152712982613	0.0			0	1.0	1	0	1.0	0	805	0	0	0	unknown
5	2	1	56	56857	5604	7.6981920920079565	0	0.0	1960.899136029184	0.0			0	0.0	0	1	2.0	0	806	0	0	0	unknown
5	2	1	57	58860	5629	7.698238384444266	0	1.0	1053.944593993947	0.0			0	1.0	1	0	1.0	0	807	0	0	0	unknown
5	2	1	58	19069	5555	7.69828467303887	0	1.0	1843.9987620222385	0.0			0	1.0	1	0	1.0	0	808	0	0	0	unknown
5	2	1	59	8007	86	7.698330966639332	0	0.0	2004.5750529970971	0.0			0	0.0	0	1	2.0	0	809	1	0	1	new
5	2	1	60	62614	7292	7.698377268505282	0	1.0	1912.7141920034771	0.0			0	1.0	1	0	1.0	0	810	0	0	0	unknown
5	2	1	61	72163	2391	7.698423562920653	0	1.0	1281.098870036658	0.0			0	1.0	1	0	1.0	0	811	0	0	0	unknown
5	2	1	62	59440	1282	7.698469850234686	0	1.0	1942.5830710097216	0.0			0	1.0	1	0	1.0	0	812	0	0	0	unknown
5	2	1	63	863	2152	7.698516142670996	1	1.0	2564.601421006955	0.0	77.0		0	0.0	0	1	2.0	0	813	0	0	0	unknown
5	2	2	1	69018	7785	7.700103925773875	0	1.0	1154.3868940207176	0.0			0	1.0	1	0	1.0	0	814	0	0	0	unknown
5	2	2	2	15287	4946	7.7001502310158685	0	1.0	1156.6917009768076	0.0			0	1.0	1	0	1.0	0	815	0	0	0	unknown
5	2	2	3	27394	6483	7.70019652089104	0	0.0	1737.9342060303316	0.0			0	0.0	0	1	2.0	0	816	0	0	0	unknown
5	2	2	4	46990	1436	7.700242713326589	0	0.0	1334.90132400766	0.0			0	0.0	0	1	2.0	0	817	0	0	0	unknown
5	2	2	5	55285	6808	7.700289014261216	0	1.0	945.4982369788921	0.0			0	1.0	1	0	1.0	0	818	0	0	0	unknown
5	2	2	6	21849	6129	7.700335296336561	0	1.0	1323.3601480023935	0.0			0	1.0	1	0	1.0	0	819	0	0	0	unknown
5	2	2	7	67058	3625	7.700381594826467	0	1.0	1426.4555189874955	0.0			0	1.0	1	0	1.0	0	820	0	0	0	unknown
5	2	2	8	29554	4127	7.70042789413128	0	1.0	1089.9207239854147	0.0			0	1.0	1	0	1.0	0	821	0	0	0	unknown
5	2	2	9	4787	36	7.700474193436093	1	1.0	1509.7707650274967	0.0	131.0	418.0	0	0.0	0	1	2.0	0	822	1	0	3	hard
5	2	2	10	67058	3625	7.700520487036557	1	1.0	1284.7964070388116	0.0	2.0		1	1.0	0	1	2.0	0	823	0	0	0	unknown
5	2	2	11	11422	8509	7.7006130712106815	0	1.0	2455.981777980924	0.0			0	1.0	1	0	1.0	0	824	0	0	0	unknown
5	2	2	12	13435	7629	7.70065935945604	0	1.0	1009.6857579774224	0.0			0	1.0	1	0	1.0	0	825	0	0	0	unknown
5	2	2	13	10100	1218	7.70070565934293	1	1.0	2102.46168699814	0.0	170.0		0	0.0	0	1	2.0	0	826	0	0	0	unknown
5	2	2	14	30993	6410	7.700751952826976	1	0.0	1164.1305719967932	0.0	267.0		0	1.0	1	0	1.0	0	827	0	0	0	unknown
5	2	2	15	13139	159	7.7007982403738415	0	1.0	1537.3179860180244	0.0			0	1.0	1	0	1.0	0	828	1	1	1	new
5	2	2	16	36911	485	7.70084454130847	1	1.0	1152.7788499952292	0.0	47.0		1	1.0	0	1	2.0	0	829	1	0	2	easy
5	2	2	17	21260	3127	7.700890836538747	0	1.0	1271.0543969878927	0.0			0	1.0	1	0	1.0	0	830	0	0	0	unknown
5	2	2	18	51440	9744	7.700937122455798	0	1.0	1949.1794430068692	0.0			0	1.0	1	0	1.0	0	831	0	0	0	unknown
5	2	2	19	51887	3412	7.700983416172675	0	1.0	2936.266104981769	0.0			0	1.0	1	0	1.0	0	832	0	0	0	unknown
5	2	2	20	46811	9461	7.701029717805795	0	1.0	1303.409215004649	0.0			0	1.0	1	0	1.0	0	833	0	0	0	unknown
5	2	2	21	1591	4620	7.701122304075397	1	1.0	2543.565172003582	1.0	181.0		0	0.0	1	1	2.0	0	834	0	0	0	unknown
5	2	2	22	12409	4250	7.70116859988775	0	0.0	2329.816860961728	1.0			0	0.0	1	1	2.0	0	835	0	0	0	unknown
5	2	2	23	8195	8816	7.701214894768782	1	0.0	841.6578030446544	0.0	272.0		0	1.0	1	0	1.0	0	836	0	0	0	unknown
5	2	2	24	72410	2587	7.701261189184151	1	1.0	1306.9087160401975	0.0	52.0		1	1.0	0	1	2.0	0	837	0	0	0	unknown
5	2	2	25	27387	7627	7.701307473704218	0	1.0	1709.4569419859909	0.0			0	1.0	1	0	1.0	0	838	0	0	0	unknown
5	2	2	26	25455	327	7.701353771612048	0	1.0	1621.5141919674352	0.0			0	1.0	1	0	1.0	0	839	1	0	1	new
5	2	2	27	48505	7054	7.701400070334784	0	1.0	1411.9805300142616	0.0			0	1.0	1	0	1.0	0	840	0	0	0	unknown
5	2	2	28	47451	6637	7.701446365681475	0	1.0	1443.8831299776211	0.0			0	1.0	1	0	1.0	0	841	0	0	0	unknown
5	2	2	29	46223	4945	7.701492651831359	0	1.0	1232.2023389860988	0.0			0	1.0	1	0	1.0	0	842	0	0	0	unknown
5	2	2	30	69212	3524	7.701538951718248	0	1.0	1622.908974008169	0.0			0	1.0	1	0	1.0	0	843	0	0	0	unknown
5	2	2	31	45097	8854	7.701585240545682	0	1.0	2158.0319649656303	0.0			0	1.0	1	0	1.0	0	844	0	0	0	unknown
5	2	2	32	37639	3822	7.701631436357274	1	1.0	1503.7918200250715	0.0	123.0	172.0	0	0.0	0	1	2.0	0	845	0	0	0	unknown
5	2	2	33	14529	173	7.701677730190567	1	1.0	1682.8580209985375	0.0	120.0	244.0	0	0.0	0	1	2.0	0	846	1	0	3	hard
5	2	2	34	5340	3975	7.701770328101702	0	1.0	1703.9416810148396	0.0			0	1.0	1	0	1.0	0	847	0	0	0	unknown
5	2	2	35	64556	8077	7.701816614135168	0	1.0	1359.3693650327623	0.0			0	1.0	1	0	1.0	0	848	0	0	0	unknown
5	2	2	36	2742	3935	7.701862915069795	0	1.0	1860.727117978968	0.0			0	1.0	1	0	1.0	0	849	0	0	0	unknown
5	2	2	37	52584	5208	7.701909201801754	1	1.0	2103.3145080436952	0.0	56.0		1	1.0	0	1	2.0	0	850	0	0	0	unknown
5	2	2	38	9746	3179	7.701955504715442	0	1.0	1701.7656770185567	0.0			0	1.0	1	0	1.0	0	851	0	0	0	unknown
5	2	2	39	54013	1189	7.7020017929608	0	1.0	2351.026935968548	0.0			0	1.0	1	0	1.0	0	852	0	0	0	unknown
5	2	2	40	28519	8403	7.702048091450705	0	0.0	1573.4168020426296	0.0			0	0.0	0	1	2.0	0	853	0	0	0	unknown
5	2	2	41	38772	1776	7.702094384119847	0	1.0	1417.9412379744463	0.0			0	1.0	1	0	1.0	0	854	0	0	0	unknown
5	2	2	42	59762	4187	7.702140680048615	0	1.0	2539.1914570354857	0.0			0	1.0	1	0	1.0	0	855	0	0	0	unknown
5	2	2	43	52856	3769	7.702186967129819	0	1.0	1404.6369660063647	0.0			0	1.0	1	0	1.0	0	856	0	0	0	unknown
5	2	2	44	27799	4812	7.702279557473957	0	0.0	3689.1682820278215	0.0			0	0.0	0	1	2.0	0	857	0	0	0	unknown
5	2	2	45	66376	6635	7.702325857244432	0	1.0	705.6495600263588	0.0			0	1.0	1	0	1.0	0	858	0	0	0	unknown
5	2	2	46	13788	1490	7.702372151310556	1	0.0	1240.4308029799722	0.0	157.0		0	1.0	1	0	1.0	0	859	0	0	0	unknown
5	2	2	47	50310	9571	7.702418438508174	1	0.0	1292.8094579838216	0.0	280.0		0	1.0	1	0	1.0	0	860	0	0	0	unknown
5	2	2	48	66877	1386	7.702464737347326	1	1.0	969.57850898616	0.0	83.0	162.0	1	1.0	0	1	2.0	0	861	0	0	0	unknown
5	2	2	49	67101	5896	7.702511035487987	1	0.0	1856.9995909929276	0.0	331.0		0	1.0	1	0	1.0	0	862	0	0	0	unknown
5	2	2	50	43780	3371	7.702557320473715	0	1.0	1573.8976920256391	0.0			0	1.0	1	0	1.0	0	863	0	0	0	unknown
5	2	2	51	15768	8303	7.702603621175512	0	1.0	981.7662280402145	0.0			0	1.0	1	0	1.0	0	864	0	0	0	unknown
5	2	2	52	22352	8258	7.702649916638621	0	1.0	1554.7537829843347	0.0			0	1.0	1	0	1.0	0	865	0	0	0	unknown
5	2	2	53	13160	2854	7.702696202206425	0	1.0	1643.0595759884454	0.0			0	1.0	1	0	1.0	0	866	0	0	0	unknown
5	2	2	54	32305	5745	7.702788794646039	1	1.0	1816.1206440418027	0.0	229.0	344.0	0	0.0	0	1	2.0	0	867	0	0	0	unknown
5	2	2	55	14256	8175	7.702835088362916	1	1.0	1328.2804139889777	0.0	449.0		0	0.0	0	1	2.0	0	868	0	0	0	unknown
5	2	2	56	30973	6851	7.702881380799226	0	1.0	937.4981209984979	0.0			0	1.0	1	0	1.0	0	869	0	0	0	unknown
5	2	2	57	9231	108	7.702927578473463	0	1.0	1410.7384029775856	0.0			0	1.0	1	0	1.0	0	870	1	0	1	new
5	2	2	58	14595	175	7.702973874285818	1	1.0	1590.0318209896795	0.0	117.0		1	1.0	0	1	2.0	0	871	1	0	2	easy
5	2	2	59	30973	6851	7.703020166954959	1	1.0	1030.2208029897884	0.0	2.0		1	1.0	0	1	2.0	0	872	0	0	0	unknown
5	2	2	60	15768	8303	7.70306646102108	1	1.0	832.4959299643525	0.0	8.0		1	1.0	0	1	2.0	0	873	0	0	0	unknown
5	2	2	61	46135	3663	7.703112753224558	0	1.0	1185.9485119930468	0.0			0	1.0	1	0	1.0	0	874	0	0	0	unknown
5	2	2	62	1721	1826	7.703159049153328	1	1.0	1203.860755020287	0.0	105.0		1	1.0	0	1	2.0	0	875	0	0	0	unknown
5	2	3	1	61749	848	7.7047471072291955	1	1.0	1039.2630599671975	0.0	72.0		1	1.0	0	1	2.0	0	876	1	0	2	easy
5	2	3	2	30419	1143	7.704793393961155	0	1.0	1157.7350050210953	0.0			0	1.0	1	0	1.0	0	877	0	0	0	unknown
5	2	3	3	2137	2020	7.704839697107672	0	1.0	2949.981754005421	0.0			0	1.0	1	0	1.0	0	878	0	0	0	unknown
5	2	3	4	70882	3783	7.70488598907832	0	1.0	1047.1642519696616	0.0			0	1.0	1	0	1.0	0	879	0	0	0	unknown
5	2	3	5	27799	4812	7.704932284890673	1	1.0	702.9117789934389	0.0	22.0		1	1.0	0	1	2.0	0	880	0	0	0	unknown
5	2	3	6	9049	106	7.704978586407377	0	1.0	2521.4611970004626	0.0			0	1.0	1	0	1.0	0	881	1	0	1	new
5	2	3	7	49762	4361	7.705024887109174	0	1.0	1048.7642539665103	0.0			0	1.0	1	0	1.0	0	882	0	0	0	unknown
5	2	3	8	72859	1626	7.70507118292153	0	1.0	1102.1291840006595	0.0			0	1.0	1	0	1.0	0	883	0	0	0	unknown
5	2	3	9	5764	3996	7.705117471748963	1	1.0	1053.823699010536	0.0	568.0		0	0.0	0	1	2.0	0	884	0	0	0	unknown
5	2	3	10	16790	4292	7.705163780017757	0	1.0	1802.7449270011855	0.0			0	1.0	1	0	1.0	0	885	0	0	0	unknown
5	2	3	11	51430	8706	7.705256365239619	1	0.0	1932.2576539707368	0.0	204.0		0	1.0	1	0	1.0	0	886	0	0	0	unknown
5	2	3	12	13857	1420	7.705302650574594	0	1.0	1449.3270840030164	0.0			0	1.0	1	0	1.0	0	887	0	0	0	unknown
5	2	3	13	6984	9893	7.705348972114734	0	1.0	2042.848666023929	0.0			0	1.0	1	0	1.0	0	888	0	0	0	unknown
5	2	3	14	43879	7841	7.705395236727781	0	0.0	2569.459979014937	0.0			0	0.0	0	1	2.0	0	889	0	0	0	unknown
5	2	3	15	71307	1803	7.705441556405277	0	1.0	1333.2137780380435	0.0			0	1.0	1	0	1.0	0	890	0	0	0	unknown
5	2	3	16	63567	1040	7.705487824394367	1	1.0	1974.305565992836	0.0	232.0		0	0.0	0	1	2.0	0	891	0	0	0	unknown
5	2	3	17	22276	3284	7.705534151755273	1	1.0	2742.3165169893764	0.0	761.0		0	0.0	0	1	2.0	0	892	0	0	0	unknown
5	2	3	18	57914	1498	7.705580414738505	0	1.0	1301.3798149768263	0.0			0	1.0	1	0	1.0	0	893	0	0	0	unknown
5	2	3	19	44853	2485	7.705626750830562	0	1.0	1034.2848459840752	0.0			0	1.0	1	0	1.0	0	894	0	0	0	unknown
5	2	3	20	61799	9008	7.705719347228296	1	1.0	1226.6601049923336	0.0	98.0	291.0	1	1.0	0	1	2.0	0	895	0	0	0	unknown
5	2	3	21	59956	9484	7.705765583552419	1	1.0	923.1057880097069	0.0	195.0	567.0	0	0.0	0	1	2.0	0	896	0	0	0	unknown
5	2	3	22	59224	1994	7.70581194362603	1	1.0	1098.410301026888	0.0	199.0		0	0.0	0	1	2.0	0	897	0	0	0	unknown
5	2	3	23	46000	625	7.705858177854679	0	1.0	1758.9085479849018	0.0			0	1.0	1	0	1.0	0	898	1	0	1	new
5	2	3	24	42881	8819	7.70590453944169	1	1.0	1451.7695470131002	0.0	147.0		1	1.0	0	1	2.0	0	899	0	0	0	unknown
5	2	3	25	6799	7020	7.705950764124282	1	0.0	2448.649828031193	0.0	426.0		0	1.0	1	0	1.0	0	900	0	0	0	unknown
5	2	3	26	42852	570	7.70599713723641	0	1.0	1775.107236986514	0.0			0	1.0	1	0	1.0	0	901	1	1	1	new
5	2	3	27	52960	7066	7.70604335644748	0	1.0	1372.845589998178	0.0			0	1.0	1	0	1.0	0	902	0	0	0	unknown
5	2	3	28	68847	7410	7.7060897340998045	0	1.0	2394.7927720146254	0.0			0	1.0	1	0	1.0	0	903	0	0	0	unknown
5	2	3	29	72846	7306	7.706135937594808	0	1.0	2114.2069410416298	0.0			0	1.0	1	0	1.0	0	904	0	0	0	unknown
5	2	3	30	69018	7785	7.70622852537781	1	1.0	2325.0830169999967	0.0	90.0		1	1.0	0	1	2.0	0	905	0	0	0	unknown
5	2	3	31	49406	4152	7.706274932017549	1	1.0	1547.7084910380654	0.0	148.0		1	1.0	0	2	2.0	0	906	0	0	0	unknown
5	2	3	32	7374	1645	7.706321119912899	1	0.0	2002.774403023068	0.0	682.0		0	1.0	1	0	1.0	0	907	0	0	0	unknown
5	2	3	33	22516	276	7.706367514445446	0	1.0	1503.7836460396647	0.0			0	1.0	2	0	1.0	0	908	1	0	1	new
5	2	3	34	52420	1475	7.70641370723024	0	1.0	2091.1019910126925	0.0			0	1.0	1	0	1.0	0	909	0	0	0	unknown
5	2	3	35	47027	1102	7.706460110959599	0	1.0	2100.756047992036	0.0			0	1.0	1	0	1.0	0	910	0	0	0	unknown
5	2	3	36	27799	4812	7.706506198504939	1	1.0	714.0293609700166	0.0	30.0	53.0	1	1.0	0	1	2.0	0	911	0	0	0	unknown
5	2	3	37	49406	4152	7.706552500370891	1	1.0	1119.9785750359297	0.0	5.0	154.0	1	1.0	0	1	2.0	0	912	0	0	0	unknown
5	2	3	38	36911	485	7.706598781747743	1	1.0	1104.18030701112	0.0	83.0	131.0	1	1.0	0	1	2.0	0	913	1	0	3	easy
5	2	3	39	40841	534	7.706645081983878	0	1.0	2834.428040019702	0.0			0	1.0	1	0	1.0	0	914	1	0	1	new
5	2	3	40	32944	7561	7.706691373139619	1	1.0	2228.4723519696854	0.0	173.0	296.0	0	0.0	0	1	2.0	0	915	0	0	0	unknown
5	2	3	41	15993	7116	7.706737662781961	0	1.0	1085.4017590172589	0.0			0	1.0	1	0	1.0	0	916	0	0	0	unknown
5	2	3	42	10909	4035	7.706830254057422	0	1.0	1203.3576630055904	0.0			0	1.0	1	0	1.0	0	917	0	0	0	unknown
5	2	3	43	33792	6077	7.7068765508010975	0	1.0	1311.9998530019075	0.0			0	1.0	1	0	1.0	0	918	0	0	0	unknown
5	2	3	44	69059	4593	7.706922845565715	0	1.0	1439.8344359942712	0.0			0	1.0	1	0	1.0	0	919	0	0	0	unknown
5	2	3	45	12081	4442	7.706969135324471	0	1.0	1607.2360679972917	0.0			0	1.0	1	0	1.0	0	920	0	0	0	unknown
5	2	3	46	56514	9130	7.707015427062288	1	1.0	1091.8224829947576	0.0	137.0		1	1.0	0	1	2.0	0	921	0	0	0	unknown
5	2	3	47	61749	848	7.70706172066275	1	1.0	820.6441520014778	0.0	45.0	118.0	1	1.0	0	1	2.0	0	922	1	0	3	easy
5	2	3	48	54334	5221	7.707108018221333	0	1.0	1464.1596020082943	0.0			0	1.0	1	0	1.0	0	923	0	0	0	unknown
5	2	3	49	54243	5313	7.707154307398013	1	1.0	944.7935509961097	0.0	133.0	163.0	1	1.0	0	1	2.0	0	924	0	0	0	unknown
5	2	3	50	45602	4893	7.707200610777363	0	1.0	939.5668089855462	0.0			0	1.0	1	0	1.0	0	925	0	0	0	unknown
5	2	3	51	9028	105	7.707246905076317	0	1.0	1301.7754169995897	0.0			0	1.0	1	0	1.0	0	926	1	0	1	new
5	2	3	52	8449	1937	7.707293197629043	0	1.0	1422.7785329567268	0.0			0	1.0	1	0	1.0	0	927	0	0	0	unknown
5	2	3	53	3882	4900	7.70733949553687	1	1.0	1739.9409979698248	0.0	802.0		0	0.0	0	1	2.0	0	928	0	0	0	unknown
5	2	3	54	30973	6851	7.707432080991566	1	1.0	856.9219000055455	0.0	56.0	59.0	1	1.0	0	1	2.0	0	929	0	0	0	unknown
5	2	3	55	71474	6265	7.707478369236923	0	1.0	2102.64165699482	0.0			0	1.0	1	0	1.0	0	930	0	0	0	unknown
5	2	3	56	3416	1069	7.707524660858325	1	0.0	1808.4905479918236	0.0	276.0		0	1.0	1	0	1.0	0	931	0	0	0	unknown
5	2	3	57	10726	2195	7.707570958067662	1	1.0	1268.5844489606095	0.0	164.0		1	1.0	0	1	2.0	0	932	0	0	0	unknown
5	2	3	58	16561	2484	7.707617256324737	0	0.0	2205.778052972164	0.0			0	0.0	0	1	2.0	0	933	0	0	0	unknown
5	2	3	59	4590	3699	7.7076635556295505	0	0.0	2510.36130200373	0.0			0	0.0	0	1	2.0	0	934	0	0	0	unknown
5	2	3	60	64896	3940	7.707709837355651	0	1.0	1157.6488789869472	0.0			0	1.0	1	0	1.0	0	935	0	0	0	unknown
5	2	3	61	48505	7054	7.707756140851415	1	1.0	881.8182280519977	0.0	95.0		1	1.0	0	2	2.0	0	936	0	0	0	unknown
5	2	3	62	33324	2492	7.707802432007155	0	1.0	1282.1611930266954	0.0			0	1.0	1	0	1.0	0	937	0	0	0	unknown
5	2	3	63	13435	7629	7.70784863224253	1	1.0	1145.0158979860134	0.0	112.0		1	1.0	0	1	2.0	0	938	0	0	0	unknown
5	2	4	1	56534	5273	7.709468101733363	1	0.0	1279.983659973368	0.0	247.0		0	1.0	1	0	1.0	0	939	0	0	0	unknown
5	2	4	2	10176	4467	7.709514396614395	0	1.0	1205.5596570135094	0.0			0	1.0	1	0	1.0	0	940	0	0	0	unknown
5	2	4	3	56857	5604	7.709560628398322	1	1.0	1705.5074719828551	0.0	134.0		1	1.0	0	1	2.0	0	941	0	0	0	unknown
5	2	4	4	29554	4127	7.709606991498731	1	1.0	996.5745340450666	0.0	120.0		1	1.0	0	1	2.0	0	942	0	0	0	unknown
5	2	4	5	4963	5242	7.709653211873955	0	1.0	1909.597845980897	0.0			0	1.0	1	0	1.0	0	943	0	0	0	unknown
5	2	4	6	53892	742	7.709699588594958	0	1.0	995.0906720478088	0.0			0	1.0	1	0	1.0	0	944	1	0	1	new
5	2	4	7	25939	5995	7.70974581153132	0	1.0	2346.9386840006337	0.0			0	1.0	1	0	1.0	0	945	0	0	0	unknown
5	2	4	8	59529	6183	7.709792172652668	0	1.0	1151.842622028198	0.0			0	1.0	1	0	1.0	0	946	0	0	0	unknown
5	2	4	9	53886	3974	7.7098383934935555	0	1.0	1044.1633419832215	0.0			0	1.0	1	0	1.0	0	947	0	0	0	unknown
5	2	4	10	23068	3927	7.709930977202019	0	1.0	1226.3120569987223	0.0			0	1.0	1	0	1.0	0	948	0	0	0	unknown
5	2	4	11	16381	9913	7.709977366495877	1	1.0	1349.0976250031963	0.0	874.0		0	0.0	0	1	2.0	0	949	0	0	0	unknown
5	2	4	12	52960	7066	7.710023574414662	1	1.0	867.2199959983117	0.0	47.0		1	1.0	0	1	2.0	0	950	0	0	0	unknown
5	2	4	13	61874	853	7.710069961147382	0	1.0	2561.5952860098328	0.0			0	1.0	1	0	1.0	0	951	1	1	1	new
5	2	4	14	13026	7979	7.710116157657466	0	1.0	1159.1464319499207	0.0			0	1.0	1	0	1.0	0	952	0	0	0	unknown
5	2	4	15	46961	2247	7.710162558942103	0	1.0	1126.154277997557	0.0			0	1.0	1	0	1.0	0	953	0	0	0	unknown
5	2	4	16	66102	4061	7.7102087534731245	1	0.0	1491.9800669886172	0.0	855.0		0	1.0	1	0	1.0	0	954	0	0	0	unknown
5	2	4	17	60850	7697	7.710255155921914	1	0.0	1150.8940550265831	0.0	392.0		0	1.0	1	0	1.0	0	955	0	0	0	unknown
5	2	4	18	13584	2287	7.710301329032518	0	1.0	957.8903029905632	0.0			0	1.0	1	0	1.0	0	956	0	0	0	unknown
5	2	4	19	12139	9977	7.71039392647799	0	1.0	1203.7859080010091	0.0			0	1.0	1	0	1.0	0	957	0	0	0	unknown
5	2	4	20	42009	6728	7.710440117167311	0	1.0	2226.8923350493424	0.0			0	1.0	1	0	1.0	0	958	0	0	0	unknown
5	2	4	21	8083	5811	7.71048641926609	0	1.0	2014.2288380302489	0.0			0	1.0	1	0	1.0	0	959	0	0	0	unknown
5	2	4	22	10857	3586	7.710532700875774	0	1.0	1319.1778270411305	0.0			0	1.0	1	0	1.0	0	960	0	0	0	unknown
5	2	4	23	10021	2584	7.710578997503034	0	1.0	1151.0349109885283	0.0			0	1.0	1	0	1.0	0	961	0	0	0	unknown
