SUBJECT	SESSION	RUN	TRIAL	73KID	10KID	TIME	ISOLD	ISCORRECT	RT	CHANGEMIND	MEMORYRECENT	MEMORYFIRST	ISOLDCURRENT	ISCORRECTCURRENT	TOTAL1	TOTAL2	BUTTON	MISSINGDATA	trial_full	is_shared1000	is_special100	shared1000_repNum	presentation_type
4	1	1	1	46003	626	0.7236226804088801	0	1.0	1792.8944760060403	0.0			0	1.0	1.0	0.0	1.0	0	1	1	0	1	new
4	1	1	2	23082	5013	0.7236689799465239	0	1.0	726.6852799803017	0.0			0	1.0	1.0	0.0	1.0	0	2	0	0	0	unknown
4	1	1	3	8031	4850	0.723715262603946	0	1.0	643.5158509993926	0.0			0	1.0	1.0	0.0	1.0	0	3	0	0	0	unknown
4	1	1	4	36381	8823	0.7237615740159526	0	1.0	733.4404249850195	0.0			0	1.0	1.0	0.0	1.0	0	4	0	0	0	unknown
4	1	1	5	2949	9538	0.7238078530644997	0	1.0	602.375001006294	0.0			0	1.0	1.0	0.0	1.0	0	5	0	0	0	unknown
4	1	1	6	56801	6061	0.7238541722763329	0	1.0	627.5087230023928	0.0			0	1.0	1.0	0.0	1.0	0	6	0	0	0	unknown
4	1	1	7	25466	4421	0.723900438984856	0	1.0	677.0417240040841	0.0			0	1.0	1.0	0.0	1.0	0	7	0	0	0	unknown
4	1	1	8	5679	3858	0.7239467692561447	0	1.0	784.2581929871811	0.0			0	1.0	1.0	0.0	1.0	0	8	0	0	0	unknown
4	1	1	9	72196	8124	0.7239930260693654	0	1.0	677.3489619954489	0.0			0	1.0	1.0	0.0	1.0	0	9	0	0	0	unknown
4	1	1	10	16441	4843	0.724039364606142	0	1.0	712.1344880142715	0.0			0	1.0	1.0	0.0	1.0	0	10	0	0	0	unknown
4	1	1	11	29265	7941	0.7240856183925642	0	1.0	806.61046601017	0.0			0	1.0	1.0	0.0	1.0	0	11	0	0	0	unknown
4	1	1	12	41499	4523	0.7241319607710465	0	1.0	768.0549020005855	0.0			0	1.0	1.0	0.0	1.0	0	12	0	0	0	unknown
4	1	1	13	37122	1070	0.7242245583329349	0	1.0	997.1334130095784	0.0			0	1.0	1.0	0.0	1.0	0	13	0	0	0	unknown
4	1	1	14	5780	9588	0.7242707974510267	0	1.0	924.76227300358	0.0			0	1.0	1.0	0.0	1.0	0	14	0	0	0	unknown
4	1	1	15	33497	4623	0.7243171555455774	0	1.0	885.895175015321	0.0			0	1.0	1.0	0.0	1.0	0	15	0	0	0	unknown
4	1	1	16	36390	3185	0.7243633889593183	0	1.0	947.8400349908042	0.0			0	1.0	1.0	0.0	1.0	0	16	0	0	0	unknown
4	1	1	17	28551	4586	0.7244097508955746	0	1.0	803.9993289858103	0.0			0	1.0	1.0	0.0	1.0	0	17	0	0	0	unknown
4	1	1	18	3053	1009	0.7244559734826908	0	1.0	1017.0462990063241	0.0			0	1.0	1.0	0.0	1.0	0	18	0	0	0	unknown
4	1	1	19	10743	8634	0.7245023482246324	0	1.0	972.681860992452	0.0			0	1.0	1.0	0.0	1.0	0	19	0	0	0	unknown
4	1	1	20	1573	9648	0.7245485539315268	0	1.0	1360.654323012568	0.0			0	1.0	1.0	0.0	1.0	0	20	0	0	0	unknown
4	1	1	21	58570	9425	0.7245949297212064	0	1.0	885.425443004351	0.0			0	1.0	1.0	0.0	1.0	0	21	0	0	0	unknown
4	1	1	22	11024	1344	0.7246411460218951	0	1.0	985.0085430080072	0.0			0	1.0	1.0	0.0	1.0	0	22	0	0	0	unknown
4	1	1	23	53367	7441	0.7247337336884812	0	1.0	815.2927340124733	0.0			0	1.0	1.0	0.0	1.0	0	23	0	0	0	unknown
4	1	1	24	65042	3902	0.7247800439363346	0	1.0	726.4981549815274	0.0			0	1.0	1.0	0.0	1.0	0	24	0	0	0	unknown
4	1	1	25	70847	8795	0.724826326360926	0	1.0	763.9107839786446	0.0			0	1.0	1.0	0.0	1.0	0	25	0	0	0	unknown
4	1	1	26	27488	1840	0.72487263137009	0	1.0	756.6242629836779	0.0			0	1.0	1.0	0.0	1.0	0	26	0	0	0	unknown
4	1	1	27	55741	1356	0.7249189146095886	0	1.0	893.5964310076087	0.0			0	1.0	1.0	0.0	1.0	0	27	0	0	0	unknown
4	1	1	28	30178	5506	0.7249652214813977	0	1.0	880.3939610079395	0.0			0	1.0	1.0	0.0	1.0	0	28	0	0	0	unknown
4	1	1	29	48618	666	0.7250114980852231	0	1.0	847.8915560117457	0.0			0	1.0	1.0	0.0	1.0	0	29	1	0	1	new
4	1	1	30	20447	8240	0.7250578011153265	0	1.0	940.8544430043548	0.0			0	1.0	1.0	0.0	1.0	0	30	0	0	0	unknown
4	1	1	31	16512	7232	0.7251040854025632	0	1.0	780.9725260012782	0.0			0	1.0	2.0	0.0	1.0	0	31	0	0	0	unknown
4	1	1	32	37774	5691	0.7251503964653238	0	1.0	761.7261789855547	0.0			0	1.0	1.0	0.0	1.0	0	32	0	0	0	unknown
4	1	1	33	48311	6661	0.7251965773757547	0	1.0	755.1266770169603	0.0			0	1.0	1.0	0.0	1.0	0	33	0	0	0	unknown
4	1	1	34	40407	2400	0.7252428752835839	0	1.0	908.9697070012335	0.0			0	1.0	1.0	0.0	1.0	0	34	0	0	0	unknown
4	1	1	35	3884	2252	0.7253354601562023	0	1.0	702.6990239974111	0.0			0	1.0	1.0	0.0	1.0	0	35	0	0	0	unknown
4	1	1	36	44981	612	0.7253817553864791	0	1.0	1084.1987270105164	0.0			0	1.0	1.0	0.0	1.0	0	36	1	0	1	new
4	1	1	37	2046	1609	0.7254280520137399	0	1.0	835.6660410063341	0.0			0	1.0	1.0	0.0	1.0	0	37	0	0	0	unknown
4	1	1	38	52463	3579	0.725474338280037	0	1.0	773.5702159989158	0.0			0	1.0	1.0	0.0	1.0	0	38	0	0	0	unknown
4	1	1	39	45206	1703	0.7255206364206969	0	1.0	1018.8212640059646	0.0			0	1.0	1.0	0.0	1.0	0	39	0	0	0	unknown
4	1	1	40	25109	9976	0.7255669280420988	0	1.0	758.1980249960906	0.0			0	1.0	1.0	0.0	1.0	0	40	0	0	0	unknown
4	1	1	41	61538	5770	0.725613224087283	0	0.0	2651.547825022135	1.0			0	0.0	1.0	1.0	2.0	0	41	0	0	0	unknown
4	1	1	42	12591	8748	0.7256595236249268	0	1.0	909.7664770088159	0.0			0	1.0	1.0	0.0	1.0	0	42	0	0	0	unknown
4	1	1	43	30286	9202	0.7257058196701109	0	1.0	710.4829029995017	0.0			0	1.0	1.0	0.0	1.0	0	43	0	0	0	unknown
4	1	1	44	42917	3123	0.725752102676779	0	1.0	882.2040520026349	0.0			0	1.0	1.0	0.0	1.0	0	44	0	0	0	unknown
4	1	1	45	32626	436	0.7257984078023582	0	1.0	1190.1961480034515	0.0			0	1.0	1.0	0.0	1.0	0	45	1	0	1	new
4	1	1	46	28551	4586	0.7258909887168556	1	1.0	1002.6887739950324	0.0	28.0		1	1.0	0.0	1.0	2.0	0	46	0	0	0	unknown
4	1	1	47	8625	1499	0.7259372796397656	0	1.0	1125.0540949986316	0.0			0	1.0	1.0	0.0	1.0	0	47	0	0	0	unknown
4	1	1	48	42586	2872	0.7259835768491029	0	1.0	953.2178030058277	0.0			0	1.0	1.0	0.0	1.0	0	48	0	0	0	unknown
4	1	1	49	34939	9173	0.726029876503162	0	1.0	1042.847675998928	0.0			0	1.0	1.0	0.0	1.0	0	49	0	0	0	unknown
4	1	1	50	39620	2665	0.7260761656798422	0	1.0	1104.2045329813843	0.0			0	1.0	1.0	0.0	1.0	0	50	0	0	0	unknown
4	1	1	51	40292	1045	0.7261224591638892	0	1.0	1004.4267180201132	0.0			0	1.0	1.0	0.0	1.0	0	51	0	0	0	unknown
4	1	1	52	30964	1974	0.7261687535792589	0	1.0	1002.4088810023386	0.0			0	1.0	1.0	0.0	1.0	0	52	0	0	0	unknown
4	1	1	53	67118	2268	0.7262150524184107	0	1.0	884.7460400138517	0.0			0	1.0	1.0	0.0	1.0	0	53	0	0	0	unknown
4	1	1	54	29186	7771	0.7262613456696271	0	1.0	901.9191410043277	0.0			0	1.0	1.0	0.0	1.0	0	54	0	0	0	unknown
4	1	1	55	17654	6336	0.7263539360137656	0	1.0	926.0610429919325	0.0			0	1.0	1.0	0.0	1.0	0	55	0	0	0	unknown
4	1	1	56	53053	727	0.7264002277515827	0	1.0	803.9764449931681	0.0			0	1.0	1.0	0.0	1.0	0	56	1	1	1	new
4	1	1	57	4931	40	0.7264464272884652	0	1.0	1873.1167940131852	0.0			0	1.0	1.0	0.0	1.0	0	57	1	0	1	new
4	1	1	58	4935	6000	0.7264927208889275	0	1.0	1102.2485389839856	0.0			0	1.0	1.0	0.0	1.0	0	58	0	0	0	unknown
4	1	1	59	50029	7046	0.726539011229761	0	1.0	930.980998004088	0.0			0	1.0	1.0	0.0	1.0	0	59	0	0	0	unknown
4	1	1	60	18199	1607	0.726585304364562	0	1.0	1004.1463350062259	0.0			0	1.0	1.0	0.0	1.0	0	60	0	0	0	unknown
4	1	1	61	54033	2132	0.7266315976157784	0	1.0	923.4839589917102	0.0			0	1.0	1.0	0.0	1.0	0	61	0	0	0	unknown
4	1	1	62	31011	5352	0.7266778916819021	0	1.0	1102.4099140195176	0.0			0	1.0	1.0	0.0	1.0	0	62	0	0	0	unknown
4	1	1	63	50771	2514	0.7267241842346265	0	1.0	765.8922669943422	0.0			0	1.0	1.0	0.0	1.0	0	63	0	0	0	unknown
4	1	2	1	12647	5730	0.7282298014033585	0	1.0	943.4498019982128	0.0			0	1.0	1.0	0.0	1.0	0	64	0	0	0	unknown
4	1	2	2	41405	4135	0.72827617789153	0	1.0	830.540288996417	0.0			0	1.0	1.0	0.0	1.0	0	65	0	0	0	unknown
4	1	2	3	67782	5169	0.7283223971026018	0	1.0	822.0094659773166	0.0			0	1.0	1.0	0.0	1.0	0	66	0	0	0	unknown
4	1	2	4	53303	5821	0.7283687631133943	0	1.0	999.2411809798797	0.0			0	1.0	1.0	0.0	1.0	0	67	0	0	0	unknown
4	1	2	5	8266	8842	0.7284149773186072	0	1.0	2183.382407994941	0.0			0	1.0	1.0	0.0	1.0	0	68	0	0	0	unknown
4	1	2	6	41405	4135	0.7284613710362464	1	1.0	835.9939510119148	0.0	3.0		1	1.0	0.0	1.0	2.0	0	69	0	0	0	unknown
4	1	2	7	26378	4990	0.7285075705731286	0	1.0	866.0866590216755	0.0			0	1.0	1.0	0.0	1.0	0	70	0	0	0	unknown
4	1	2	8	45669	9955	0.7285539575386792	0	1.0	1376.8845710146707	0.0			0	1.0	2.0	0.0	1.0	0	71	0	0	0	unknown
4	1	2	9	46328	7331	0.7286001520697027	0	1.0	1645.0082710071	1.0			0	1.0	1.0	1.0	1.0	0	72	0	0	0	unknown
4	1	2	10	9475	3470	0.7286465551005676	0	1.0	1217.029738007113	0.0			0	1.0	1.0	0.0	1.0	0	73	0	0	0	unknown
4	1	2	11	9940	9913	0.728692740900442	0	1.0	1168.2071370014455	0.0			0	1.0	1.0	0.0	1.0	0	74	0	0	0	unknown
4	1	2	12	18480	3207	0.7287853363668546	0	1.0	832.3212469986174	0.0			0	1.0	1.0	0.0	1.0	0	75	0	0	0	unknown
4	1	2	13	13676	5799	0.7288317460333928	0	1.0	2598.319333017571	0.0			0	1.0	1.0	0.0	1.0	0	76	0	0	0	unknown
4	1	2	14	12080	4068	0.7288779283408074	0	1.0	1154.320673987968	0.0			0	1.0	1.0	0.0	1.0	0	77	0	0	0	unknown
4	1	2	15	26405	2204	0.7289241267135366	0	1.0	806.7891070095357	0.0			0	1.0	1.0	0.0	1.0	0	78	0	0	0	unknown
4	1	2	16	23742	7081	0.7289704056456685	0	1.0	1103.1655090046115	0.0			0	1.0	1.0	0.0	1.0	0	79	0	0	0	unknown
4	1	2	17	18558	3632	0.7290167124010623	0	1.0	1160.8143069897778	0.0			0	1.0	1.0	0.0	1.0	0	80	0	0	0	unknown
4	1	2	18	25554	3444	0.7290630043717101	0	1.0	1139.0594399999827	0.0			0	1.0	1.0	0.0	1.0	0	81	0	0	0	unknown
4	1	2	19	22739	2840	0.7291092926170676	0	1.0	2156.734966993099	0.0			0	1.0	1.0	0.0	1.0	0	82	0	0	0	unknown
4	1	2	20	52190	1538	0.7291555840056388	0	1.0	3257.999077992281	0.0			0	1.0	1.0	0.0	1.0	0	83	0	0	0	unknown
4	1	2	21	38153	8951	0.7292481819167733	0	1.0	1078.3195250260178	0.0			0	1.0	1.0	0.0	1.0	0	84	0	0	0	unknown
4	1	2	22	45977	8009	0.7292944715591148	0	1.0	834.7489640000275	0.0			0	1.0	1.0	0.0	1.0	0	85	0	0	0	unknown
4	1	2	23	28578	5772	0.7293407617835327	0	1.0	1650.460528995609	0.0			0	1.0	1.0	0.0	1.0	0	86	0	0	0	unknown
4	1	2	24	46014	5200	0.729387060040608	0	1.0	971.4083379949443	0.0			0	1.0	1.0	0.0	1.0	0	87	0	0	0	unknown
4	1	2	25	69468	7984	0.7294333504978567	0	1.0	1587.4537939962463	0.0			0	1.0	1.0	0.0	1.0	0	88	0	0	0	unknown
4	1	2	26	36173	9865	0.7294796489877626	0	1.0	957.6814180181827	0.0			0	1.0	1.0	0.0	1.0	0	89	0	0	0	unknown
4	1	2	27	60743	7367	0.7295259415404871	0	1.0	1171.8783659744076	0.0			0	1.0	1.0	0.0	1.0	0	90	0	0	0	unknown
4	1	2	28	32626	436	0.7295722378185018	1	1.0	902.7272190141955	0.0	45.0		1	1.0	0.0	1.0	2.0	0	91	1	0	2	easy
4	1	2	29	60287	3014	0.7296185321174561	0	1.0	780.5354559968691	0.0			0	1.0	1.0	0.0	1.0	0	92	0	0	0	unknown
4	1	2	30	64239	3569	0.7296648187329992	0	1.0	855.6887340091633	0.0			0	1.0	1.0	0.0	1.0	0	93	0	0	0	unknown
4	1	2	31	65093	6871	0.7297574103577062	0	1.0	977.1862089983188	0.0			0	1.0	1.0	0.0	1.0	0	94	0	0	0	unknown
4	1	2	32	47139	4263	0.7298037065193057	0	1.0	1034.784165996825	0.0			0	1.0	1.0	0.0	1.0	0	95	0	0	0	unknown
4	1	2	33	65408	3694	0.729850002680905	0	1.0	1003.9625559875276	0.0			0	1.0	1.0	0.0	1.0	0	96	0	0	0	unknown
4	1	2	34	56231	5322	0.729896294651553	0	1.0	2545.147303986596	0.0			0	1.0	1.0	0.0	1.0	0	97	0	0	0	unknown
4	1	2	35	42231	4061	0.7299425908131524	0	1.0	1056.0854129726067	0.0			0	1.0	1.0	0.0	1.0	0	98	0	0	0	unknown
4	1	2	36	36999	7985	0.7299888858105987	0	1.0	2183.560514007695	0.0			0	1.0	2.0	0.0	1.0	0	99	0	0	0	unknown
4	1	2	37	56248	6041	0.7300351723097264	0	1.0	1403.5946819931269	0.0			0	1.0	1.0	0.0	1.0	0	100	0	0	0	unknown
4	1	2	38	66633	6142	0.7300814782502129	0	1.0	1074.891511001624	0.0			0	1.0	1.0	0.0	1.0	0	101	0	0	0	unknown
4	1	2	39	17888	6843	0.7301277654478326	0	1.0	865.3327969950624	0.0			0	1.0	1.0	0.0	1.0	0	102	0	0	0	unknown
4	1	2	40	51445	7442	0.7301739649847149	0	1.0	685.2614890085533	0.0			0	1.0	1.0	0.0	1.0	0	103	0	0	0	unknown
4	1	2	41	31497	1108	0.7302665514871478	0	1.0	1504.0018240106292	0.0			0	1.0	1.0	0.0	1.0	0	104	0	0	0	unknown
4	1	2	42	55895	9936	0.7303128448547795	0	0.0	1657.9436099855227	0.0			0	0.0	0.0	1.0	2.0	0	105	0	0	0	unknown
4	1	2	43	9169	2757	0.7303591460222378	0	1.0	1115.4120949795467	0.0			0	1.0	1.0	0.0	1.0	0	106	0	0	0	unknown
4	1	2	44	57799	9658	0.7304054849082604	0	1.0	1806.4446409989612	0.0			0	1.0	1.0	0.0	1.0	0	107	0	0	0	unknown
4	1	2	45	67782	5169	0.7304517747834324	1	1.0	952.65421300428	0.0	41.0		1	1.0	0.0	1.0	2.0	0	108	0	0	0	unknown
4	1	2	46	19747	3376	0.730498080374673	0	1.0	1034.7945379908197	0.0			0	1.0	1.0	0.0	1.0	0	109	0	0	0	unknown
4	1	2	47	9392	7287	0.7305443690856918	0	1.0	2107.4086249864195	0.0			0	1.0	1.0	0.0	1.0	0	110	0	0	0	unknown
4	1	2	48	18729	5363	0.7305906674591824	0	1.0	1581.7653150006663	0.0			0	1.0	1.0	0.0	1.0	0	111	0	0	0	unknown
4	1	2	49	41484	5834	0.7306369722355157	0	1.0	1651.0417019890156	0.0			0	1.0	1.0	0.0	1.0	0	112	0	0	0	unknown
4	1	2	50	40394	6448	0.7306832688627763	0	1.0	1372.7442180097569	0.0			0	1.0	1.0	0.0	1.0	0	113	0	0	0	unknown
4	1	2	51	5030	4186	0.7307295670034363	0	1.0	795.2965010190383	0.0			0	1.0	1.0	0.0	1.0	0	114	0	0	0	unknown
4	1	2	52	39969	9715	0.7307758629322052	0	1.0	1157.277606020216	0.0			0	1.0	1.0	0.0	1.0	0	115	0	0	0	unknown
4	1	2	53	37907	1430	0.7308684577001258	0	1.0	1939.9418309913017	0.0			0	1.0	1.0	0.0	1.0	0	116	0	0	0	unknown
4	1	2	54	28249	9621	0.7309147580526769	0	1.0	1421.1659859865904	0.0			0	1.0	1.0	0.0	1.0	0	117	0	0	0	unknown
4	1	2	55	30919	7112	0.7309610474621877	0	1.0	2046.6270149918275	0.0			0	1.0	1.0	0.0	1.0	0	118	0	0	0	unknown
4	1	2	56	51111	9845	0.7310073478147388	0	1.0	1382.9969209909905	0.0			0	1.0	1.0	0.0	1.0	0	119	0	0	0	unknown
4	1	2	57	41215	7473	0.7310536482837051	0	1.0	2170.598163997056	0.0			0	1.0	1.0	0.0	1.0	0	120	0	0	0	unknown
4	1	2	58	6432	60	0.7310999508481472	0	1.0	1425.6136180192696	0.0			0	1.0	1.0	0.0	1.0	0	121	1	0	1	new
4	1	2	59	9169	2757	0.7311462420038878	1	1.0	1762.4444889952429	0.0	15.0		1	1.0	0.0	1.0	2.0	0	122	0	0	0	unknown
4	1	2	60	62732	2704	0.7311925393296405	0	1.0	1200.3902109863702	0.0			0	1.0	1.0	0.0	1.0	0	123	0	0	0	unknown
4	1	2	61	10743	8634	0.7312388366553932	1	1.0	1857.661514019128	0.0	104.0		1	1.0	0.0	1.0	2.0	0	124	0	0	0	unknown
4	1	2	62	53114	4900	0.7312850248999893	0	1.0	1161.7628860112743	0.0			0	1.0	1.0	0.0	1.0	0	125	0	0	0	unknown
4	1	3	1	11062	7336	0.7327897555660456	0	1.0	977.3026030161418	0.0			0	1.0	1.0	0.0	1.0	0	126	0	0	0	unknown
4	1	3	2	70336	970	0.7328360570827499	0	1.0	2053.004179004347	0.0			0	1.0	1.0	0.0	1.0	0	127	1	0	1	new
4	1	3	3	10899	4229	0.7328823434654623	0	0.0	1830.103415995836	0.0			0	0.0	0.0	1.0	2.0	0	128	0	0	0	unknown
4	1	3	4	52543	3770	0.7329286396270617	0	1.0	980.3494329971728	0.0			0	1.0	1.0	0.0	1.0	0	129	0	0	0	unknown
4	1	3	5	26306	3284	0.732974931015633	0	1.0	1042.9570580017753	0.0			0	1.0	1.0	0.0	1.0	0	130	0	0	0	unknown
4	1	3	6	60712	6316	0.7330212253145874	0	1.0	1683.2988999958616	0.0			0	1.0	1.0	0.0	1.0	0	131	0	0	0	unknown
4	1	3	7	5481	1266	0.7330675243865697	0	1.0	2239.2492330109235	0.0			0	1.0	1.0	0.0	1.0	0	132	0	0	0	unknown
4	1	3	8	36577	479	0.7331138182198628	0	1.0	1717.7804830134846	0.0			0	1.0	1.0	0.0	1.0	0	133	1	0	1	new
4	1	3	9	34780	6277	0.733160107396543	0	1.0	1270.7735809963197	0.0			0	1.0	1.0	0.0	1.0	0	134	0	0	0	unknown
4	1	3	10	33778	9754	0.733206401579082	0	1.0	1472.2635429934599	0.0			0	1.0	1.0	0.0	1.0	0	135	0	0	0	unknown
4	1	3	11	11912	7300	0.7332989956485108	0	1.0	1132.832083007088	0.0			0	1.0	1.0	0.0	1.0	0	136	0	0	0	unknown
4	1	3	12	26725	1104	0.7333452806342393	0	1.0	1311.084784014383	0.0			0	1.0	1.0	0.0	1.0	0	137	0	0	0	unknown
4	1	3	13	35882	7313	0.7333915847120805	0	1.0	1418.8616200117394	0.0			0	1.0	1.0	0.0	1.0	0	138	0	0	0	unknown
4	1	3	14	59920	3250	0.7334378745872527	0	1.0	1212.3363139980938	0.0			0	1.0	1.0	0.0	1.0	0	139	0	0	0	unknown
4	1	3	15	70364	6726	0.7334841713309288	0	1.0	1129.0720969846006	0.0			0	1.0	1.0	0.0	1.0	0	140	0	0	0	unknown
4	1	3	16	2147	8054	0.7335304587613791	0	1.0	1303.107966989046	0.0			0	1.0	1.0	0.0	1.0	0	141	0	0	0	unknown
4	1	3	17	7471	7613	0.7335767570184543	0	1.0	1558.492890006164	0.0			0	1.0	1.0	0.0	1.0	0	142	0	0	0	unknown
4	1	3	18	71099	6236	0.7336230574874207	0	1.0	1244.2101560009176	0.0			0	1.0	1.0	0.0	1.0	0	143	0	0	0	unknown
4	1	3	19	60278	2259	0.7336693465476855	0	1.0	1190.765987004852	0.0			0	1.0	1.0	0.0	1.0	0	144	0	0	0	unknown
4	1	3	20	64311	3968	0.7337156351422891	0	1.0	2492.711266997503	0.0			0	1.0	1.0	0.0	1.0	0	145	0	0	0	unknown
4	1	3	21	65739	2980	0.7337619309546425	0	1.0	1289.203820982948	0.0			0	1.0	1.0	0.0	1.0	0	146	0	0	0	unknown
4	1	3	22	1231	9718	0.7338082337519153	0	1.0	1466.4749949879479	0.0			0	1.0	1.0	0.0	1.0	0	147	0	0	0	unknown
4	1	3	23	38612	1550	0.7338545237435027	0	1.0	1802.2604750003663	0.0			0	1.0	1.0	0.0	1.0	0	148	0	0	0	unknown
4	1	3	24	65739	2980	0.733900818740949	1	1.0	905.3048070054499	0.0	2.0		1	1.0	0.0	1.0	2.0	0	149	0	0	0	unknown
4	1	3	25	55833	6274	0.7339933454059064	0	1.0	2224.64778702124	0.0			0	1.0	1.0	0.0	1.0	0	150	0	0	0	unknown
4	1	3	26	1947	6666	0.7340396450599656	0	1.0	1734.5763679768424	0.0			0	1.0	1.0	0.0	1.0	0	151	0	0	0	unknown
4	1	3	27	33310	3580	0.7340859411051496	0	0.0	1249.1662509855814	0.0			0	0.0	0.0	1.0	2.0	0	152	0	0	0	unknown
4	1	3	28	57047	791	0.7341322387801483	0	1.0	1183.0138660152443	0.0			0	1.0	1.0	0.0	1.0	0	153	1	0	1	new
4	1	3	29	29186	7771	0.7341785320313647	1	1.0	947.5796860060655	0.0	99.0		1	1.0	0.0	1.0	2.0	0	154	0	0	0	unknown
4	1	3	30	36999	7985	0.7342248336644843	1	1.0	1362.605511007132	0.0	55.0		1	1.0	0.0	1.0	2.0	0	155	0	0	0	unknown
4	1	3	31	43041	5651	0.7342711299424991	0	1.0	1013.56763401418	0.0			0	1.0	1.0	0.0	1.0	0	156	0	0	0	unknown
4	1	3	32	61166	4786	0.7343174284324049	0	1.0	1597.4329280143138	0.0			0	1.0	1.0	0.0	1.0	0	157	0	0	0	unknown
4	1	3	33	14040	5910	0.7343637263402342	0	1.0	2045.005790016148	0.0			0	1.0	1.0	0.0	1.0	0	158	0	0	0	unknown
4	1	3	34	18799	6588	0.7344100242480635	0	1.0	1706.8801290006377	0.0			0	1.0	1.0	0.0	1.0	0	159	0	0	0	unknown
4	1	3	35	27266	5925	0.7344563121441751	0	1.0	2066.4508110203315	0.0			0	1.0	1.0	0.0	1.0	0	160	0	0	0	unknown
4	1	3	36	9090	5699	0.7345489098224788	0	1.0	1672.0948059810323	0.0			0	1.0	1.0	0.0	1.0	0	161	0	0	0	unknown
4	1	3	37	25787	3719	0.7345952163450419	0	1.0	1216.7260319984052	0.0			0	1.0	1.0	0.0	1.0	0	162	0	0	0	unknown
4	1	3	38	23532	5440	0.7346414319472387	0	1.0	1853.9374420070087	0.0			0	1.0	1.0	0.0	1.0	0	163	0	0	0	unknown
4	1	3	39	40856	9470	0.7346877279924228	0	1.0	1131.9357090105768	0.0			0	1.0	1.0	0.0	1.0	0	164	0	0	0	unknown
4	1	3	40	51492	1330	0.7347340221749618	0	1.0	1966.3230589940208	0.0			0	1.0	1.0	0.0	1.0	0	165	0	0	0	unknown
4	1	3	41	54805	8935	0.7347803118173032	0	1.0	2457.686048001051	0.0			0	1.0	1.0	0.0	1.0	0	166	0	0	0	unknown
4	1	3	42	7660	80	0.7348266071639955	0	1.0	1530.9056569822133	0.0			0	1.0	1.0	0.0	1.0	0	167	1	0	1	new
4	1	3	43	65556	2159	0.7348728999495506	0	1.0	1710.9809030080214	0.0			0	1.0	1.0	0.0	1.0	0	168	0	0	0	unknown
4	1	3	44	54282	1866	0.7349192010005936	0	1.0	1447.314068995183	0.0			0	1.0	1.0	0.0	1.0	0	169	0	0	0	unknown
4	1	3	45	21177	5965	0.7350117862224578	0	1.0	1715.345084987348	0.0			0	1.0	1.0	0.0	1.0	0	170	0	0	0	unknown
4	1	3	46	62563	7512	0.7350580758647993	0	1.0	1614.1137719969263	0.0			0	1.0	1.0	0.0	1.0	0	171	0	0	0	unknown
4	1	3	47	6057	4025	0.735104379360564	0	1.0	1176.5587510017212	0.0			0	1.0	1.0	0.0	1.0	0	172	0	0	0	unknown
4	1	3	48	6057	4025	0.7351506690029054	1	1.0	1335.8792189974336	0.0	0.0		1	1.0	0.0	1.0	2.0	0	173	0	0	0	unknown
4	1	3	49	30374	403	0.7351969643495976	0	1.0	2636.7021920159455	0.0			0	1.0	1.0	0.0	1.0	0	174	1	0	1	new
4	1	3	50	41759	1665	0.7352431531762704	0	1.0	1706.152648985153	0.0			0	1.0	1.0	0.0	1.0	0	175	0	0	0	unknown
4	1	3	51	9162	9667	0.7352894464274868	0	1.0	1768.8692290103063	0.0			0	1.0	1.0	0.0	1.0	0	176	0	0	0	unknown
4	1	3	52	25960	340	0.7353357408428564	0	1.0	1653.2637490017803	0.0			0	1.0	1.0	0.0	1.0	0	177	1	0	1	new
4	1	3	53	65576	6692	0.7353820336284115	0	1.0	2003.07885199436	0.0			0	1.0	1.0	0.0	1.0	0	178	0	0	0	unknown
4	1	3	54	62194	3824	0.7354746269993484	0	1.0	1265.0071149982975	0.0			0	1.0	1.0	0.0	1.0	0	179	0	0	0	unknown
4	1	3	55	171	1160	0.7355209122179076	0	1.0	1304.491009999765	0.0			0	1.0	1.0	0.0	1.0	0	180	0	0	0	unknown
4	1	3	56	50029	7046	0.7355672102421522	1	1.0	1818.1600760144647	0.0	121.0		1	1.0	0.0	1.0	2.0	0	181	0	0	0	unknown
4	1	3	57	62315	7852	0.7356135020963847	0	1.0	1227.6617659954354	0.0			0	1.0	1.0	0.0	1.0	0	182	0	0	0	unknown
4	1	3	58	703	5291	0.7356598061742261	0	1.0	2301.7248779942747	0.0			0	1.0	1.0	0.0	1.0	0	183	0	0	0	unknown
4	1	3	59	67458	3595	0.7357060923241078	0	1.0	1879.57776201074	0.0			0	1.0	1.0	0.0	1.0	0	184	0	0	0	unknown
4	1	3	60	62059	2325	0.735752386972308	0	1.0	2361.510543996701	0.0			0	1.0	1.0	0.0	1.0	0	185	0	0	0	unknown
4	1	3	61	36073	4285	0.7357986817369238	0	1.0	1874.9149530194695	0.0			0	1.0	1.0	0.0	1.0	0	186	0	0	0	unknown
4	1	3	62	49303	8561	0.7358449723105877	0	1.0	1961.6220729949416	0.0			0	1.0	1.0	0.0	1.0	0	187	0	0	0	unknown
4	1	3	63	60287	3014	0.7358912733616307	1	1.0	1290.6301679904573	0.0	95.0		1	1.0	0.0	1.0	2.0	0	188	0	0	0	unknown
4	1	4	1	30374	403	0.7373904236592352	1	1.0	1327.1429860033095	0.0	14.0		1	1.0	0.0	1.0	2.0	0	189	1	0	2	easy
4	1	4	2	44981	612	0.7374367221491411	1	1.0	2206.86589597608	0.0	153.0		1	1.0	0.0	1.0	2.0	0	190	1	0	2	easy
4	1	4	3	16461	4687	0.7374830102780833	0	0.0	2217.481645027874	0.0			0	0.0	0.0	1.0	2.0	0	191	0	0	0	unknown
4	1	4	4	58570	9425	0.7375293185468763	1	1.0	1641.6462030028924	0.0	170.0		1	1.0	0.0	1.0	2.0	0	192	0	0	0	unknown
4	1	4	5	59386	7750	0.7375755931716412	0	1.0	1718.1388640019577	0.0			0	1.0	1.0	0.0	1.0	0	193	0	0	0	unknown
4	1	4	6	17978	3194	0.7376219034194946	0	1.0	1091.8164199974851	0.0			0	1.0	1.0	0.0	1.0	0	194	0	0	0	unknown
4	1	4	7	32790	2628	0.737668186891824	0	1.0	1178.5922999843024	0.0			0	1.0	1.0	0.0	1.0	0	195	0	0	0	unknown
4	1	4	8	27269	9722	0.7377144867787137	0	1.0	1415.1891189976595	0.0			0	1.0	1.0	0.0	1.0	0	196	0	0	0	unknown
4	1	4	9	49303	8561	0.7377607702510431	1	1.0	803.6272879980969	0.0	9.0		1	1.0	0.0	1.0	2.0	0	197	0	0	0	unknown
4	1	4	10	4953	2670	0.7378070849226787	0	1.0	1134.641800977988	0.0			0	1.0	1.0	0.0	1.0	0	198	0	0	0	unknown
4	1	4	11	39739	5109	0.7378996678162366	0	1.0	1104.4862400158308	0.0			0	1.0	1.0	0.0	1.0	0	199	0	0	0	unknown
4	1	4	12	45444	3457	0.7379459536168724	0	1.0	1936.0364119929727	0.0			0	1.0	1.0	0.0	1.0	0	200	0	0	0	unknown
4	1	4	13	44956	9972	0.7379922479158267	0	1.0	1817.049492994556	0.0			0	1.0	1.0	0.0	1.0	0	201	0	0	0	unknown
4	1	4	14	65415	899	0.7380385346477851	0	1.0	1771.9286239880603	0.0			0	1.0	1.0	0.0	1.0	0	202	1	0	1	new
4	1	4	15	35679	5741	0.7380848445463924	0	1.0	1149.2250390001573	0.0			0	1.0	1.0	0.0	1.0	0	203	0	0	0	unknown
4	1	4	16	65852	3831	0.7381311308126896	0	1.0	2488.447509997058	0.0			0	1.0	1.0	0.0	1.0	0	204	0	0	0	unknown
4	1	4	17	40086	3799	0.738177424063906	0	1.0	1583.8861130177975	0.0			0	1.0	1.0	0.0	1.0	0	205	0	0	0	unknown
4	1	4	18	43966	2517	0.7382237210404127	0	1.0	1359.498616977362	0.0			0	1.0	1.0	0.0	1.0	0	206	0	0	0	unknown
4	1	4	19	71405	6504	0.7382700131274759	0	0.0	2117.5103800196666	0.0			0	0.0	0.0	1.0	2.0	0	207	0	0	0	unknown
4	1	4	20	51168	3548	0.738362604053691	0	1.0	1223.6682020011356	0.0			0	1.0	1.0	0.0	1.0	0	208	0	0	0	unknown
4	1	4	21	45818	6399	0.7384088903199881	0	1.0	1917.2669590043367	0.0			0	1.0	1.0	0.0	1.0	0	209	0	0	0	unknown
4	1	4	22	37232	3095	0.7384551886934787	0	1.0	1429.4491500186268	0.0			0	1.0	1.0	0.0	1.0	0	210	0	0	0	unknown
4	1	4	23	60739	9021	0.7385014788014814	0	1.0	2490.2172709989827	0.0			0	1.0	1.0	0.0	1.0	0	211	0	0	0	unknown
4	1	4	24	62922	9121	0.738547769607976	0	1.0	1506.2440340116154	0.0			0	1.0	1.0	0.0	1.0	0	212	0	0	0	unknown
4	1	4	25	62315	7852	0.7385940625099465	1	1.0	870.287522993749	0.0	30.0		1	1.0	0.0	1.0	2.0	0	213	0	0	0	unknown
4	1	4	26	31497	1108	0.7386403664713725	1	1.0	1457.5613450142555	0.0	109.0		1	1.0	0.0	1.0	2.0	0	214	0	0	0	unknown
4	1	4	27	48734	8441	0.7386866562301293	0	1.0	946.7892250104339	0.0			0	1.0	1.0	0.0	1.0	0	215	0	0	0	unknown
4	1	4	28	31257	9826	0.7387329458724707	0	1.0	1526.834593998501	0.0			0	1.0	1.0	0.0	1.0	0	216	0	0	0	unknown
4	1	4	29	7730	7559	0.7387792400550097	0	1.0	1465.0868850003462	0.0			0	1.0	1.0	0.0	1.0	0	217	0	0	0	unknown
4	1	4	30	49856	2880	0.7388717320282012	0	1.0	1989.7117219807117	0.0			0	1.0	1.0	0.0	1.0	0	218	0	0	0	unknown
4	1	4	31	60077	9949	0.738918028306216	0	1.0	1757.1667699958195	0.0			0	1.0	1.0	0.0	1.0	0	219	0	0	0	unknown
4	1	4	32	53367	7441	0.7389643236529082	1	1.0	1059.6269200032111	0.0	196.0		1	1.0	0.0	1.0	2.0	0	220	0	0	0	unknown
4	1	4	33	38418	4751	0.7390106217935681	0	1.0	1741.3807130069472	0.0			0	1.0	1.0	0.0	1.0	0	221	0	0	0	unknown
4	1	4	34	43617	5679	0.7390569159761071	0	1.0	2049.1911559947766	0.0			0	1.0	1.0	0.0	1.0	0	222	0	0	0	unknown
4	1	4	35	36173	9865	0.7391032001469284	1	1.0	1009.8629429994616	0.0	133.0		1	1.0	0.0	1.0	2.0	0	223	0	0	0	unknown
4	1	4	36	17363	1645	0.7391494972398504	0	1.0	3441.9047799892724	0.0			0	1.0	1.0	0.0	1.0	0	224	0	0	0	unknown
4	1	4	37	5481	1266	0.739195793052204	1	1.0	2506.400650017895	0.0	92.0		1	1.0	0.0	1.0	2.0	0	225	0	0	0	unknown
4	1	4	38	46006	1549	0.7392420949181541	0	1.0	2076.7623569990974	0.0			0	1.0	1.0	0.0	1.0	0	226	0	0	0	unknown
4	1	4	39	10899	4229	0.7392883844440802	1	1.0	1526.8506709835492	0.0	98.0		1	1.0	0.0	1.0	2.0	0	227	0	0	0	unknown
4	1	4	40	41261	9562	0.7393346809549257	0	1.0	2055.06525299279	0.0			0	1.0	1.0	0.0	1.0	0	228	0	0	0	unknown
4	1	4	41	15903	6187	0.7394272688543424	0	1.0	1903.1380579981487	0.0			0	1.0	1.0	0.0	1.0	0	229	0	0	0	unknown
4	1	4	42	12591	8748	0.7394735546549782	1	0.0	2750.0033249962144	0.0	187.0		1	0.0	1.0	0.0	1.0	0	230	0	0	0	unknown
4	1	4	43	40059	8374	0.739519850234501	0	1.0	2218.0288700037636	0.0			0	1.0	1.0	0.0	1.0	0	231	0	0	0	unknown
4	1	4	44	42172	559	0.739566147327423	0	1.0	2056.9936069950927	0.0			0	1.0	1.0	0.0	1.0	0	232	1	0	1	new
4	1	4	45	5603	53	0.7396124381339177	0	1.0	2293.424489995232	0.0			0	1.0	1.0	0.0	1.0	0	233	1	0	1	new
4	1	4	46	45728	8043	0.7396587403491139	0	1.0	2165.11870699469	0.0			0	1.0	1.0	0.0	1.0	0	234	0	0	0	unknown
4	1	4	47	43424	8972	0.7397050342988222	0	1.0	3014.7792419884354	0.0			0	1.0	1.0	0.0	1.0	0	235	0	0	0	unknown
4	1	4	48	29167	5860	0.7397513258038088	0	1.0	1207.0246060029604	0.0			0	1.0	1.0	0.0	1.0	0	236	0	0	0	unknown
4	1	4	49	47272	3756	0.7397976187057793	0	1.0	1444.8265709797852	0.0			0	1.0	1.0	0.0	1.0	0	237	0	0	0	unknown
4	1	4	50	39434	4734	0.7398439125390723	0	1.0	1385.4610150156077	0.0			0	1.0	1.0	0.0	1.0	0	238	0	0	0	unknown
4	1	4	51	13962	8985	0.7398902040440589	0	1.0	1783.4472020040266	0.0			0	1.0	2.0	0.0	1.0	0	239	0	0	0	unknown
4	1	4	52	36118	5862	0.7399364961311221	0	1.0	1306.1567780096084	0.0			0	1.0	1.0	0.0	1.0	0	240	0	0	0	unknown
4	1	4	53	3253	1681	0.740029084845446	0	1.0	1276.4085330127273	0.0			0	1.0	1.0	0.0	1.0	0	241	0	0	0	unknown
4	1	4	54	2147	8054	0.7400753814727067	1	1.0	992.7839759911875	0.0	100.0		1	1.0	0.0	1.0	2.0	0	242	0	0	0	unknown
4	1	4	55	51728	1983	0.7401216782163828	0	1.0	2233.052672003396	0.0			0	1.0	1.0	0.0	1.0	0	243	0	0	0	unknown
4	1	4	56	6418	7973	0.7401679662289097	0	1.0	1853.7280549935529	0.0			0	1.0	1.0	0.0	1.0	0	244	0	0	0	unknown
4	1	4	57	10988	2469	0.7402141673956066	0	1.0	1755.7562490110283	0.0			0	1.0	1.0	0.0	1.0	0	245	0	0	0	unknown
4	1	4	58	21602	265	0.7402604599483311	0	1.0	1438.5636509978212	0.0			0	1.0	1.0	0.0	1.0	0	246	1	0	1	new
4	1	4	59	62303	860	0.7403067615814507	0	1.0	1402.640385000268	0.0			0	1.0	1.0	0.0	1.0	0	247	1	0	1	new
4	1	4	60	29305	3951	0.7403530507581308	0	1.0	1463.4314150025602	0.0			0	1.0	1.0	0.0	1.0	0	248	0	0	0	unknown
4	1	4	61	25554	3444	0.7403993512270972	1	1.0	1323.9943660155404	0.0	167.0		1	1.0	0.0	1.0	2.0	0	249	0	0	0	unknown
4	1	4	62	5302	45	0.740445633418858	0	1.0	1677.721943007782	0.0			0	1.0	1.0	0.0	1.0	0	250	1	0	1	new
4	1	5	1	15493	187	0.7431137249805033	0	0.0	1615.550127986353	0.0			0	0.0	0.0	1.0	2.0	0	251	1	0	1	new
4	1	5	2	22307	6960	0.7431600363925099	0	1.0	2296.6680429817643	1.0			0	1.0	1.0	1.0	1.0	0	252	0	0	0	unknown
4	1	5	3	16420	9857	0.7432063219603151	0	1.0	1396.3347079989035	0.0			0	1.0	1.0	0.0	1.0	0	253	0	0	0	unknown
4	1	5	4	36893	9133	0.7432526313932613	0	1.0	1362.7292579913046	0.0			0	1.0	1.0	0.0	1.0	0	254	0	0	0	unknown
4	1	5	5	27915	8620	0.743298914283514	0	1.0	1136.1943410011008	0.0			0	1.0	1.0	0.0	1.0	0	255	0	0	0	unknown
4	1	5	6	25288	323	0.7433452265104278	0	1.0	1235.7997660001274	0.0			0	1.0	1.0	0.0	1.0	0	256	1	0	1	new
4	1	5	7	25876	7974	0.743391508818604	0	1.0	1484.2102139955387	0.0			0	1.0	1.0	0.0	1.0	0	257	0	0	0	unknown
4	1	5	8	43523	3060	0.7434378230245783	0	1.0	1358.2995729811955	0.0			0	1.0	1.0	0.0	1.0	0	258	0	0	0	unknown
4	1	5	9	7767	3271	0.7434841110371053	0	1.0	1267.252505000215	0.0			0	1.0	1.0	0.0	1.0	0	259	0	0	0	unknown
4	1	5	10	31405	5081	0.743530417443253	0	1.0	1069.4539079850072	0.0			0	1.0	1.0	0.0	1.0	0	260	0	0	0	unknown
4	1	5	11	8871	4741	0.7436230105813592	0	1.0	1393.7872749811504	0.0			0	1.0	1.0	0.0	1.0	0	261	0	0	0	unknown
4	1	5	12	34549	1085	0.7436693022027611	0	1.0	1452.7790260035545	0.0			0	1.0	1.0	0.0	1.0	0	262	0	0	0	unknown
4	1	5	13	19843	6570	0.7437156093074008	0	1.0	1338.0829090019688	0.0			0	1.0	1.0	0.0	1.0	0	263	0	0	0	unknown
4	1	5	14	39434	4734	0.7437618982512503	1	1.0	1272.2326480143236	0.0	25.0		1	1.0	0.0	1.0	2.0	0	264	0	0	0	unknown
4	1	5	15	21602	265	0.7438080902211368	1	1.0	1137.1041510137727	0.0	18.0		1	1.0	0.0	1.0	2.0	0	265	1	0	2	easy
4	1	5	16	65739	2980	0.7438544851029291	1	1.0	1255.512636009371	0.0	116.0	119.0	1	1.0	0.0	1.0	2.0	0	266	0	0	0	unknown
4	1	5	17	51719	6150	0.743900675443001	0	1.0	1233.955917006824	0.0			0	1.0	1.0	0.0	1.0	0	267	0	0	0	unknown
4	1	5	18	6559	66	0.7439469675300642	0	1.0	2069.368348980788	0.0			0	1.0	1.0	0.0	1.0	0	268	1	0	1	new
4	1	5	19	18356	5550	0.7439932005945593	0	1.0	1918.5926520149224	0.0			0	1.0	1.0	0.0	1.0	0	269	0	0	0	unknown
4	1	5	20	34249	6106	0.7440394557779654	0	1.0	2088.102257985156	0.0			0	1.0	1.0	0.0	1.0	0	270	0	0	0	unknown
4	1	5	21	6418	7973	0.7440857563633471	1	1.0	1034.79848097777	0.0	26.0		1	1.0	0.0	1.0	2.0	0	271	0	0	0	unknown
4	1	5	22	61093	4401	0.7441320426296442	0	1.0	2031.5072249795771	0.0			0	1.0	1.0	0.0	1.0	0	272	0	0	0	unknown
4	1	5	23	63811	2727	0.7442246228456497	0	1.0	2145.00837700325	0.0			0	1.0	1.0	0.0	1.0	0	273	0	0	0	unknown
4	1	5	24	13181	6036	0.7442709193564951	0	1.0	1492.3418019898236	0.0			0	1.0	1.0	0.0	1.0	0	274	0	0	0	unknown
4	1	5	25	52324	7741	0.7443172169150784	0	1.0	2335.5741029954515	0.0			0	1.0	1.0	0.0	1.0	0	275	0	0	0	unknown
4	1	5	26	16608	2387	0.7443635097006335	0	1.0	1658.6907710006926	0.0			0	1.0	1.0	0.0	1.0	0	276	0	0	0	unknown
4	1	5	27	66021	7130	0.7444098057458177	0	1.0	1639.639385015471	0.0			0	1.0	1.0	0.0	1.0	0	277	0	0	0	unknown
4	1	5	28	47778	6647	0.7444561020238324	0	1.0	1885.2533510071223	0.0			0	1.0	1.0	0.0	1.0	0	278	0	0	0	unknown
4	1	5	29	27266	5925	0.7445023964392021	1	1.0	1425.3839630109724	0.0	118.0		1	1.0	0.0	1.0	2.0	0	279	0	0	0	unknown
4	1	5	30	48254	3686	0.7445486843353137	0	1.0	1481.5554410160985	0.0			0	1.0	1.0	0.0	1.0	0	280	0	0	0	unknown
4	1	5	31	70336	970	0.7445949794491752	1	1.0	1241.1254899925552	0.0	153.0		1	1.0	0.0	1.0	2.0	0	281	1	0	2	easy
4	1	5	32	16724	201	0.7446412806166335	0	1.0	1925.7080359966492	0.0			0	1.0	1.0	0.0	1.0	0	282	1	0	1	new
4	1	5	33	16461	4687	0.7446875715395435	1	1.0	1541.4747729955707	0.0	91.0		1	1.0	0.0	1.0	2.0	0	283	0	0	0	unknown
4	1	5	34	16608	2387	0.7447801526868715	1	1.0	1175.7330420077778	0.0	7.0		1	1.0	0.0	1.0	2.0	0	284	0	0	0	unknown
4	1	5	35	38504	6349	0.7448264505947008	0	1.0	2541.119450004772	0.0			0	1.0	1.0	0.0	1.0	0	285	0	0	0	unknown
4	1	5	36	45444	3457	0.7448727446608245	1	1.0	1788.8885509746615	0.0	85.0		1	1.0	0.0	1.0	2.0	0	286	0	0	0	unknown
4	1	5	37	23413	5237	0.7449190353509038	0	1.0	2215.034885011846	0.0			0	1.0	1.0	0.0	1.0	0	287	0	0	0	unknown
4	1	5	38	23413	5237	0.7449653371004387	1	1.0	1180.0530040054582	0.0	0.0		1	1.0	0.0	1.0	2.0	0	288	0	0	0	unknown
4	1	5	39	67782	5169	0.7450116341933608	1	1.0	1284.9846970057115	0.0	180.0	222.0	1	1.0	0.0	1.0	2.0	0	289	0	0	0	unknown
4	1	5	40	48979	2284	0.7450579248834401	0	1.0	1781.7942590045277	0.0			0	1.0	2.0	0.0	1.0	0	290	0	0	0	unknown
4	1	5	41	3648	4210	0.7451042188331484	0	1.0	2141.188338020584	0.0			0	1.0	1.0	0.0	1.0	0	291	0	0	0	unknown
4	1	5	42	48238	3597	0.745150508126244	0	1.0	1825.148807023652	0.0			0	1.0	1.0	0.0	1.0	0	292	0	0	0	unknown
4	1	5	43	4331	2768	0.7452430999837815	0	1.0	1520.6272700161207	0.0			0	1.0	1.0	0.0	1.0	0	293	0	0	0	unknown
4	1	5	44	40801	5714	0.7452893004519864	0	1.0	1907.2682130208705	0.0			0	1.0	1.0	0.0	1.0	0	294	0	0	0	unknown
4	1	5	45	62315	7852	0.7453355875331908	1	1.0	1187.7354820026085	0.0	81.0	112.0	1	1.0	0.0	1.0	2.0	0	295	0	0	0	unknown
4	1	5	46	139	9788	0.7453818799695	0	1.0	1753.574161004508	0.0			0	1.0	1.0	0.0	1.0	0	296	0	0	0	unknown
4	1	5	47	64032	9094	0.7454281812533736	0	1.0	1983.5545539972368	0.0			0	1.0	1.0	0.0	1.0	0	297	0	0	0	unknown
4	1	5	48	21335	2607	0.7454744684509932	0	1.0	1770.9208549931643	0.0			0	1.0	1.0	0.0	1.0	0	298	0	0	0	unknown
4	1	5	49	64470	9272	0.7455207685707136	0	1.0	1612.1235140017232	0.0			0	1.0	1.0	0.0	1.0	0	299	0	0	0	unknown
4	1	5	50	47813	5192	0.7455670564668253	0	1.0	1762.1651429799383	0.0			0	1.0	1.0	0.0	1.0	0	300	0	0	0	unknown
4	1	5	51	25393	7185	0.7456133565865457	0	1.0	2003.6805190029556	0.0			0	1.0	1.0	0.0	1.0	0	301	0	0	0	unknown
4	1	5	52	47080	6581	0.7456596533302217	0	1.0	1124.294415989425	0.0			0	1.0	1.0	0.0	1.0	0	302	0	0	0	unknown
4	1	5	53	59468	1492	0.745705942157656	0	1.0	1858.489747013664	0.0			0	1.0	1.0	0.0	1.0	0	303	0	0	0	unknown
4	1	5	54	48592	2196	0.7457522330805659	0	1.0	2103.911193000385	0.0			0	1.0	1.0	0.0	1.0	0	304	0	0	0	unknown
4	1	5	55	20646	7998	0.7458448224933817	0	1.0	1618.1420330249239	0.0			0	1.0	1.0	0.0	1.0	0	305	0	0	0	unknown
4	1	5	56	40576	531	0.7458911156281828	0	1.0	1723.9890380005816	0.0			0	1.0	1.0	0.0	1.0	0	306	1	0	1	new
4	1	5	57	17346	6520	0.7459374180762097	0	1.0	1610.1329349912703	0.0			0	1.0	1.0	0.0	1.0	0	307	0	0	0	unknown
4	1	5	58	67737	3898	0.7459837121423333	0	1.0	1507.192755001597	0.0			0	1.0	1.0	0.0	1.0	0	308	0	0	0	unknown
4	1	5	59	38722	9743	0.7460300063248723	0	1.0	1803.0635259929115	0.0			0	1.0	1.0	0.0	1.0	0	309	0	0	0	unknown
4	1	5	60	17808	2430	0.7460763005074112	0	1.0	1443.911359005142	0.0			0	1.0	1.0	0.0	1.0	0	310	0	0	0	unknown
4	1	5	61	65408	3694	0.7461225866572931	1	1.0	1386.4461990015116	0.0	214.0		1	1.0	0.0	1.0	2.0	0	311	0	0	0	unknown
4	1	5	62	51168	3548	0.7461688877083361	1	1.0	1191.370818996802	0.0	103.0		1	1.0	0.0	1.0	2.0	0	312	0	0	0	unknown
4	1	5	63	65542	1939	0.7462151864310727	0	1.0	1649.3918120104352	0.0			0	1.0	1.0	0.0	1.0	0	313	0	0	0	unknown
4	1	6	1	35633	1129	0.747650870704092	0	1.0	1980.162291001761	0.0			0	1.0	1.0	0.0	1.0	0	314	0	0	0	unknown
4	1	6	2	3206	3996	0.7476971934083849	0	1.0	1423.3408969885204	0.0			0	1.0	1.0	0.0	1.0	0	315	0	0	0	unknown
4	1	6	3	20645	5160	0.7477434624452143	0	1.0	1159.3907740025315	0.0			0	1.0	1.0	0.0	1.0	0	316	0	0	0	unknown
4	1	6	4	35892	2539	0.7477897620992735	0	1.0	1033.5919980134347	0.0			0	1.0	1.0	0.0	1.0	0	317	0	0	0	unknown
4	1	6	5	18640	5155	0.7478360553504899	0	1.0	1154.3521280109417	0.0			0	1.0	1.0	0.0	1.0	0	318	0	0	0	unknown
4	1	6	6	29387	3647	0.7478823487181216	0	0.0	2377.1960430021863	0.0			0	0.0	0.0	1.0	2.0	0	319	0	0	0	unknown
4	1	6	7	71652	7233	0.7479286333546042	0	1.0	1416.4529299887363	0.0			0	1.0	1.0	0.0	1.0	0	320	0	0	0	unknown
4	1	6	8	28578	5772	0.7479749406920745	1	1.0	1835.4716369940436	0.0	234.0		1	1.0	0.0	1.0	2.0	0	321	0	0	0	unknown
4	1	6	9	26564	5761	0.748021223465912	0	1.0	1250.0083439808805	0.0			0	1.0	1.0	0.0	1.0	0	322	0	0	0	unknown
4	1	6	10	17636	9964	0.7480675260303542	0	1.0	1544.5140629890375	0.0			0	1.0	1.0	0.0	1.0	0	323	0	0	0	unknown
4	1	6	11	16765	3903	0.748113807872869	0	1.0	1353.8810850004663	0.0			0	1.0	1.0	0.0	1.0	0	324	0	0	0	unknown
4	1	6	12	17205	9657	0.7481601195177063	0	1.0	2351.9756050081924	0.0			0	1.0	1.0	0.0	1.0	0	325	0	0	0	unknown
4	1	6	13	32186	1808	0.7482527033425866	0	1.0	1841.6455149999815	0.0			0	1.0	1.0	0.0	1.0	0	326	0	0	0	unknown
4	1	6	14	4761	3036	0.7482989893760532	0	1.0	1883.6790909990668	0.0			0	1.0	1.0	0.0	1.0	0	327	0	0	0	unknown
4	1	6	15	41719	9484	0.7483452931046485	0	1.0	1687.3957490024623	0.0			0	1.0	1.0	0.0	1.0	0	328	0	0	0	unknown
4	1	6	16	6057	4025	0.7483915828634053	1	1.0	1267.6100109820254	0.0	155.0	156.0	1	1.0	0.0	1.0	2.0	0	329	0	0	0	unknown
4	1	6	17	26633	6068	0.7484378835652024	0	1.0	2303.0537649756297	0.0			0	1.0	1.0	0.0	1.0	0	330	0	0	0	unknown
4	1	6	18	51762	5418	0.7484841702971607	0	1.0	1866.475629998604	0.0			0	1.0	1.0	0.0	1.0	0	331	0	0	0	unknown
4	1	6	19	62297	4005	0.748530464945361	0	1.0	1403.5496650030836	0.0			0	1.0	1.0	0.0	1.0	0	332	0	0	0	unknown
4	1	6	20	16373	9960	0.7485767573816701	0	1.0	2848.747401003493	0.0			0	1.0	1.0	0.0	1.0	0	333	0	0	0	unknown
4	1	6	21	70364	6726	0.7486230618087574	1	1.0	2201.275175990304	0.0	193.0		1	1.0	0.0	1.0	2.0	0	334	0	0	0	unknown
4	1	6	22	29062	2504	0.7486693378305062	0	1.0	2348.7441210018005	0.0			0	1.0	1.0	0.0	1.0	0	335	0	0	0	unknown
4	1	6	23	35174	2735	0.7487619338789954	0	1.0	1903.6123109981415	0.0			0	1.0	1.0	0.0	1.0	0	336	0	0	0	unknown
4	1	6	24	63795	8174	0.748808229342103	0	1.0	2101.903817005222	0.0			0	1.0	1.0	0.0	1.0	0	337	0	0	0	unknown
4	1	6	25	7031	7260	0.7488545211963356	0	1.0	2857.822287012823	0.0			0	1.0	1.0	0.0	1.0	0	338	0	0	0	unknown
4	1	6	26	70631	5558	0.7489008153788745	0	1.0	1840.565851016436	0.0			0	1.0	1.0	0.0	1.0	0	339	0	0	0	unknown
4	1	6	27	69100	7780	0.7489471074659377	0	1.0	1814.3351289909328	0.0			0	1.0	1.0	0.0	1.0	0	340	0	0	0	unknown
4	1	6	28	65217	1014	0.7489933376200497	0	1.0	2674.0168239921327	0.0			0	1.0	1.0	0.0	1.0	0	341	0	0	0	unknown
4	1	6	29	64031	3638	0.7490396349458023	0	1.0	2003.0914819799364	0.0			0	1.0	1.0	0.0	1.0	0	342	0	0	0	unknown
4	1	6	30	17888	6843	0.7490859285462647	1	1.0	1738.4441400063224	0.0	240.0		1	1.0	0.0	1.0	2.0	0	343	0	0	0	unknown
4	1	6	31	9854	9313	0.7491322304122149	0	1.0	3419.8572489840444	0.0			0	1.0	1.0	0.0	1.0	0	344	0	0	0	unknown
4	1	6	32	32185	1702	0.7491785194724798	0	1.0	1387.1713490225375	0.0			0	1.0	1.0	0.0	1.0	0	345	0	0	0	unknown
4	1	6	33	45596	616	0.7492248270427808	0	1.0	1640.4442859929986	0.0			0	1.0	1.0	0.0	1.0	0	346	1	1	1	new
4	1	6	34	29212	3640	0.7492711232043802	0	1.0	1656.874656007858	0.0			0	1.0	1.0	0.0	1.0	0	347	0	0	0	unknown
4	1	6	35	70387	8318	0.7493637101724743	0	1.0	1725.127331999829	0.0			0	1.0	1.0	0.0	1.0	0	348	0	0	0	unknown
4	1	6	36	64861	9017	0.7494100171606987	0	1.0	1428.2761780195867	0.0			0	1.0	1.0	0.0	1.0	0	349	0	0	0	unknown
4	1	6	37	38388	9347	0.7494563119253143	0	1.0	2128.919067006791	0.0			0	1.0	1.0	0.0	1.0	0	350	0	0	0	unknown
4	1	6	38	58881	5238	0.7495026036631315	0	1.0	2050.6820710143074	0.0			0	1.0	1.0	0.0	1.0	0	351	0	0	0	unknown
4	1	6	39	55092	6246	0.7495488408021628	0	1.0	1467.4700509931426	0.0			0	1.0	1.0	0.0	1.0	0	352	0	0	0	unknown
4	1	6	40	17978	3194	0.7495951392920687	1	1.0	1101.1195920000318	0.0	158.0		1	1.0	0.0	1.0	2.0	0	353	0	0	0	unknown
4	1	6	41	53053	727	0.7496414204360917	1	1.0	1124.734337994596	0.0	297.0		1	1.0	0.0	1.0	2.0	0	354	1	1	2	easy
4	1	6	42	30766	6311	0.7496877257945016	0	1.0	1357.1173259988427	0.0			0	1.0	1.0	0.0	1.0	0	355	0	0	0	unknown
4	1	6	43	54805	8935	0.7497340185800567	1	1.0	1557.5858060037715	0.0	189.0		1	1.0	0.0	1.0	2.0	0	356	0	0	0	unknown
4	1	6	44	9918	116	0.7498266072943806	0	1.0	2853.851145977387	0.0			0	1.0	1.0	0.0	1.0	0	357	1	0	1	new
4	1	6	45	27851	2297	0.749872900545597	0	1.0	2250.8046900038607	0.0			0	1.0	1.0	0.0	1.0	0	358	0	0	0	unknown
4	1	6	46	49201	3293	0.7499191904207692	0	1.0	2139.396699989448	0.0			0	1.0	1.0	0.0	1.0	0	359	0	0	0	unknown
4	1	6	47	26599	351	0.7499654924031347	0	0.0	1172.239964012988	0.0			0	0.0	0.0	1.0	2.0	0	360	1	0	1	new
4	1	6	48	10830	2336	0.7500117840245366	0	1.0	1134.0428330004215	0.0			0	1.0	1.0	0.0	1.0	0	361	0	0	0	unknown
4	1	6	49	21602	265	0.750058077275753	1	1.0	989.4792799896096	0.0	96.0	115.0	1	1.0	0.0	1.0	2.0	0	362	1	0	3	easy
4	1	6	50	60077	9949	0.750104371458292	1	1.0	920.4868370143232	0.0	143.0		1	1.0	0.0	1.0	2.0	0	363	0	0	0	unknown
4	1	6	51	51762	5418	0.7501506598200649	1	1.0	1070.4883610014804	0.0	32.0		1	1.0	0.0	1.0	2.0	0	364	0	0	0	unknown
4	1	6	52	30244	6017	0.7501969631994143	0	1.0	1612.8283489961177	0.0			0	1.0	1.0	0.0	1.0	0	365	0	0	0	unknown
4	1	6	53	9907	8280	0.7502895509824156	0	0.0	2050.8614580030558	0.0			0	0.0	0.0	1.0	2.0	0	366	0	0	0	unknown
4	1	6	54	19256	9965	0.750335741089657	0	1.0	2886.8363319779746	0.0			0	1.0	1.0	0.0	1.0	0	367	0	0	0	unknown
4	1	6	55	68220	8516	0.7503820366691797	0	1.0	2569.574402004946	0.0			0	1.0	1.0	0.0	1.0	0	368	0	0	0	unknown
4	1	6	56	2147	8054	0.7504283268935978	1	1.0	1017.3431720177176	0.0	126.0	227.0	1	1.0	0.0	1.0	2.0	0	369	0	0	0	unknown
4	1	6	57	5481	1266	0.7504746242193505	1	1.0	1861.244718020316	0.0	144.0	237.0	1	1.0	0.0	1.0	2.0	0	370	0	0	0	unknown
4	1	6	58	65243	8093	0.750520919682458	0	1.0	2169.5037609897554	0.0			0	1.0	1.0	0.0	1.0	0	371	0	0	0	unknown
4	1	6	59	24760	8498	0.75056721130386	0	1.0	2669.887848984217	0.0			0	1.0	1.0	0.0	1.0	0	372	0	0	0	unknown
4	1	6	60	10988	2469	0.7506135100265964	1	1.0	2065.9181030059694	0.0	127.0		1	1.0	0.0	1.0	2.0	0	373	0	0	0	unknown
4	1	6	61	60306	830	0.7506597999017685	0	1.0	2105.3707879909775	0.0			0	1.0	1.0	0.0	1.0	0	374	1	0	1	new
4	1	6	62	55833	6274	0.7507060950156301	1	1.0	1302.4077939917331	0.0	224.0		1	1.0	0.0	1.0	2.0	0	375	0	0	0	unknown
4	1	7	1	63795	8174	0.7529029013821855	1	1.0	1356.4770039811265	0.0	38.0		1	1.0	0.0	1.0	2.0	0	376	0	0	0	unknown
4	1	7	2	47707	4615	0.7529492328176274	0	1.0	3514.889193000272	0.0			0	1.0	1.0	0.0	1.0	0	377	0	0	0	unknown
4	1	7	3	62895	2736	0.7529954814817756	0	1.0	1867.5170039932707	0.0			0	1.0	1.0	0.0	1.0	0	378	0	0	0	unknown
4	1	7	4	46014	5200	0.7530417976668105	1	1.0	1702.2713990008924	0.0	291.0		1	1.0	0.0	1.0	2.0	0	379	0	0	0	unknown
4	1	7	5	11425	2330	0.7530880804406479	0	1.0	1888.3470160071736	0.0			0	1.0	1.0	0.0	1.0	0	380	0	0	0	unknown
4	1	7	6	37601	4470	0.753134386613965	0	1.0	2549.857965990668	0.0			0	1.0	1.0	0.0	1.0	0	381	0	0	0	unknown
4	1	7	7	12080	4068	0.7531806662445887	1	1.0	1088.4400359936988	0.0	304.0		1	1.0	0.0	1.0	2.0	0	382	0	0	0	unknown
4	1	7	8	26650	5858	0.7532269663643091	0	1.0	1162.950647994876	0.0			0	1.0	1.0	0.0	1.0	0	383	0	0	0	unknown
4	1	7	9	52190	1538	0.7532732528634369	1	1.0	1057.4828289973084	0.0	300.0		1	1.0	0.0	1.0	2.0	0	384	0	0	0	unknown
4	1	7	10	4206	6560	0.7533658371539786	0	1.0	2206.6158649977297	0.0			0	1.0	1.0	0.0	1.0	0	385	0	0	0	unknown
4	1	7	11	29738	8283	0.7534121501957997	0	1.0	1501.7275179852732	0.0			0	1.0	1.0	0.0	1.0	0	386	0	0	0	unknown
4	1	7	12	20645	5160	0.7534584238892421	1	1.0	1281.1131080088671	0.0	70.0		1	1.0	0.0	1.0	2.0	0	387	0	0	0	unknown
4	1	7	13	49201	3293	0.7535047287819907	1	1.0	1769.8081110138446	1.0	28.0		1	1.0	1.0	1.0	2.0	0	388	0	0	0	unknown
4	1	7	14	21177	5965	0.7535510176094248	1	1.0	2070.0142419955228	0.0	218.0		1	1.0	0.0	1.0	2.0	0	389	0	0	0	unknown
4	1	7	15	49420	2408	0.7535973245976492	0	1.0	2280.5862149980385	0.0			0	1.0	1.0	0.0	1.0	0	390	0	0	0	unknown
4	1	7	16	9162	9667	0.753643603879027	1	1.0	1669.8149259900674	0.0	214.0		1	1.0	0.0	1.0	2.0	0	391	0	0	0	unknown
4	1	7	17	54282	1866	0.7536899134283885	1	1.0	1387.317061977228	0.0	222.0		1	1.0	0.0	1.0	2.0	0	392	0	0	0	unknown
4	1	7	18	49085	3342	0.7537361962022259	0	1.0	2305.6356800079807	0.0			0	1.0	1.0	0.0	1.0	0	393	0	0	0	unknown
4	1	7	19	65217	1014	0.7537824978353455	1	1.0	1454.328499996336	0.0	52.0		1	1.0	0.0	1.0	2.0	0	394	0	0	0	unknown
4	1	7	20	1653	7951	0.7538750821258872	0	1.0	2942.82020200626	0.0			0	1.0	1.0	0.0	1.0	0	395	0	0	0	unknown
4	1	7	21	38855	4784	0.7539213664131239	0	1.0	2118.1670060032047	0.0			0	1.0	1.0	0.0	1.0	0	396	0	0	0	unknown
4	1	7	22	19607	5660	0.7539676764281465	0	1.0	1572.4136320059188	0.0			0	1.0	1.0	0.0	1.0	0	397	0	0	0	unknown
4	1	7	23	34071	8315	0.7540139615302905	0	1.0	1801.4421109983232	0.0			0	1.0	1.0	0.0	1.0	0	398	0	0	0	unknown
4	1	7	24	48650	1098	0.7540602656081318	0	1.0	2516.172766976524	0.0			0	1.0	1.0	0.0	1.0	0	399	0	0	0	unknown
4	1	7	25	51037	1431	0.7541064503602684	0	1.0	1739.3129830015823	0.0			0	1.0	1.0	0.0	1.0	0	400	0	0	0	unknown
4	1	7	26	26650	5858	0.7541527422145009	1	1.0	1658.6475720105227	0.0	17.0		1	1.0	0.0	1.0	2.0	0	401	0	0	0	unknown
4	1	7	27	33053	2848	0.754199042567052	0	1.0	2073.234764015069	0.0			0	1.0	1.0	0.0	1.0	0	402	0	0	0	unknown
4	1	7	28	4787	36	0.7542453313944861	0	1.0	1961.472343013156	0.0			0	1.0	1.0	0.0	1.0	0	403	1	0	1	new
4	1	7	29	60892	6866	0.7542916220845653	0	1.0	1810.842393024359	0.0			0	1.0	1.0	0.0	1.0	0	404	0	0	0	unknown
4	1	7	30	48650	1098	0.7543379248818382	1	1.0	1205.3916579752695	0.0	5.0		1	1.0	0.0	1.0	2.0	0	405	0	0	0	unknown
4	1	7	31	34071	8315	0.7543842192972078	1	1.0	1046.239826013334	0.0	7.0		1	1.0	0.0	1.0	2.0	0	406	0	0	0	unknown
4	1	7	32	72546	5663	0.7544305032351984	0	1.0	1877.6450029981788	0.0			0	1.0	1.0	0.0	1.0	0	407	0	0	0	unknown
4	1	7	33	58982	2218	0.7544768063817173	0	1.0	2546.4056560012978	0.0			0	1.0	1.0	0.0	1.0	0	408	0	0	0	unknown
4	1	7	34	26650	5858	0.7545693934662266	1	1.0	1566.0244689788667	0.0	7.0	25.0	1	1.0	0.0	1.0	2.0	0	409	0	0	0	unknown
4	1	7	35	64470	9272	0.754615681595169	1	1.0	1838.1252770195715	0.0	110.0		1	1.0	0.0	1.0	2.0	0	410	0	0	0	unknown
4	1	7	36	67739	8216	0.754661975079216	0	1.0	1421.5851490153	0.0			0	1.0	1.0	0.0	1.0	0	411	0	0	0	unknown
4	1	7	37	52185	7520	0.7547082771779969	0	1.0	2034.8085269797596	0.0			0	1.0	1.0	0.0	1.0	0	412	0	0	0	unknown
4	1	7	38	6948	5919	0.7547545750858262	0	1.0	2201.4008880069014	0.0			0	1.0	1.0	0.0	1.0	0	413	0	0	0	unknown
4	1	7	39	71366	2451	0.7548008601879701	0	1.0	1688.1342210108414	0.0			0	1.0	1.0	0.0	1.0	0	414	0	0	0	unknown
4	1	7	40	19582	9575	0.7548471641493961	0	1.0	1281.253077002475	0.0			0	1.0	1.0	0.0	1.0	0	415	0	0	0	unknown
4	1	7	41	11425	2330	0.7548934542573988	1	1.0	1365.6423760112375	0.0	35.0		1	1.0	0.0	1.0	2.0	0	416	0	0	0	unknown
4	1	7	42	44046	7310	0.7549397479742765	0	1.0	2080.214193993015	0.0			0	1.0	1.0	0.0	1.0	0	417	0	0	0	unknown
4	1	7	43	42658	8175	0.7549860408762469	0	0.0	1926.8682190158872	0.0			0	0.0	0.0	1.0	2.0	0	418	0	0	0	unknown
4	1	7	44	60278	2259	0.7550323314499109	1	1.0	2034.8200099833773	0.0	274.0		1	1.0	0.0	1.0	2.0	0	419	0	0	0	unknown
4	1	7	45	61093	4401	0.7550786258652806	1	1.0	1080.7360290200447	0.0	147.0		1	1.0	0.0	1.0	2.0	0	420	0	0	0	unknown
4	1	7	46	65042	3902	0.7551712190033867	1	1.0	3759.3047309783287	1.0	396.0		1	1.0	1.0	1.0	2.0	0	421	0	0	0	unknown
4	1	7	47	26525	9335	0.755217513651587	0	1.0	1037.8176590020303	0.0			0	1.0	1.0	0.0	1.0	0	422	0	0	0	unknown
4	1	7	48	10062	2760	0.7552638043416664	0	1.0	2908.445407025283	0.0			0	1.0	1.0	0.0	1.0	0	423	0	0	0	unknown
4	1	7	49	30244	6017	0.7553100052755326	1	1.0	1831.7871039907916	0.0	58.0		1	1.0	0.0	1.0	2.0	0	424	0	0	0	unknown
4	1	7	50	35569	8170	0.7553562987595795	0	1.0	1802.2081440140028	0.0			0	1.0	1.0	0.0	1.0	0	425	0	0	0	unknown
4	1	7	51	58470	5262	0.7554025845602154	0	1.0	2992.0848819892853	0.0			0	1.0	1.0	0.0	1.0	0	426	0	0	0	unknown
4	1	7	52	58470	5262	0.7554488799069076	1	1.0	871.6057739802637	0.0	0.0		1	1.0	0.0	1.0	2.0	0	427	0	0	0	unknown
4	1	7	53	10830	2336	0.7554951814236119	1	1.0	1227.5597199914043	0.0	66.0		1	1.0	0.0	1.0	2.0	0	428	0	0	0	unknown
4	1	7	54	28968	3862	0.7555414666421711	0	1.0	2003.3357850043103	0.0			0	1.0	1.0	0.0	1.0	0	429	0	0	0	unknown
4	1	7	55	54778	8482	0.7556340598966926	0	1.0	2747.8451509959996	0.0			0	1.0	1.0	0.0	1.0	0	430	0	0	0	unknown
4	1	7	56	29306	9525	0.7556803555926308	0	1.0	1713.0838230077643	0.0			0	1.0	1.0	0.0	1.0	0	431	0	0	0	unknown
4	1	7	57	52673	3450	0.7557266526855528	0	1.0	1630.3027830144856	0.0			0	1.0	1.0	0.0	1.0	0	432	0	0	0	unknown
4	1	7	58	65576	6692	0.7557729426771402	1	1.0	926.0508769948499	0.0	254.0		1	1.0	0.0	1.0	2.0	0	433	0	0	0	unknown
4	1	7	59	19182	230	0.7558192387223243	0	0.0	2687.529960996472	0.0			0	0.0	0.0	1.0	2.0	0	434	1	0	1	new
4	1	7	60	12747	5967	0.7558655341854318	0	1.0	2229.103351011872	0.0			0	1.0	1.0	0.0	1.0	0	435	0	0	0	unknown
4	1	7	61	46236	7856	0.7559118286008015	0	1.0	3483.4891500067897	0.0			0	1.0	1.0	0.0	1.0	0	436	0	0	0	unknown
4	1	7	62	18924	8586	0.7559581187088042	0	1.0	2517.167651996715	0.0			0	1.0	1.0	0.0	1.0	0	437	0	0	0	unknown
4	1	7	63	66021	7130	0.756004410330206	1	1.0	1161.909048008965	0.0	160.0		1	1.0	0.0	1.0	2.0	0	438	0	0	0	unknown
4	1	8	1	27913	8109	0.7575102160917595	0	0.0	2467.4302869825624	0.0			0	0.0	0.0	1.0	2.0	0	439	0	0	0	unknown
4	1	8	2	6559	66	0.7575565226143226	1	1.0	1185.901921999175	0.0	171.0		1	1.0	0.0	1.0	2.0	0	440	1	0	2	easy
4	1	8	3	72081	992	0.7576028073672205	0	1.0	2136.4209380117245	0.0			0	1.0	1.0	0.0	1.0	0	441	1	0	1	new
4	1	8	4	17566	2986	0.7576491112122312	0	1.0	2301.9526610150933	0.0			0	1.0	1.0	0.0	1.0	0	442	0	0	0	unknown
4	1	8	5	47785	1192	0.757695389795117	0	1.0	2507.3748670110945	0.0			0	1.0	1.0	0.0	1.0	0	443	0	0	0	unknown
4	1	8	6	39797	5568	0.7577416968997567	0	1.0	2308.3256440004334	0.0			0	1.0	1.0	0.0	1.0	0	444	0	0	0	unknown
4	1	8	7	1722	2203	0.7577878846786916	0	1.0	1641.7529079772066	0.0			0	1.0	1.0	0.0	1.0	0	445	0	0	0	unknown
4	1	8	8	25393	7185	0.7578341849148273	1	1.0	1006.4377819944638	0.0	144.0		1	1.0	0.0	1.0	2.0	0	446	0	0	0	unknown
4	1	8	9	28259	4001	0.7578804722288623	0	1.0	1391.9903679925483	0.0			0	1.0	1.0	0.0	1.0	0	447	0	0	0	unknown
4	1	8	10	36073	4285	0.75797305686865	1	0.0	1079.3171589903068	0.0	261.0		1	0.0	1.0	0.0	1.0	0	448	0	0	0	unknown
4	1	8	11	36068	475	0.7580193590838462	0	1.0	2437.592219997896	0.0			0	1.0	1.0	0.0	1.0	0	449	1	0	1	new
4	1	8	12	11062	7336	0.7580656453501433	1	1.0	1782.3332460247912	0.0	323.0		1	1.0	0.0	1.0	2.0	0	450	0	0	0	unknown
4	1	8	13	66476	1800	0.7581119379028677	0	1.0	2213.5777490038886	0.0			0	1.0	1.0	0.0	1.0	0	451	0	0	0	unknown
4	1	8	14	62922	9121	0.7581582413986325	1	1.0	1534.036939003272	0.0	239.0		1	1.0	0.0	1.0	2.0	0	452	0	0	0	unknown
4	1	8	15	46451	7428	0.7582045393064618	0						0		0.0	0.0		0	453	0	0	0	unknown
4	1	8	16	72546	5663	0.7582508279010653	1	1.0	1382.0998890150804	0.0	46.0		1	1.0	0.0	1.0	2.0	0	454	0	0	0	unknown
4	1	8	17	27263	6579	0.7582971149822697	0	1.0	1791.5902090026063	0.0			0	1.0	1.0	0.0	1.0	0	455	0	0	0	unknown
4	1	8	18	42953	7917	0.7583434107946231	0	1.0	1730.9815759945195	0.0			0	1.0	1.0	0.0	1.0	0	456	0	0	0	unknown
4	1	8	19	47272	3756	0.7583897158037871	1	1.0	1177.815445989836	0.0	219.0		1	1.0	0.0	1.0	2.0	0	457	0	0	0	unknown
4	1	8	20	34249	6106	0.7584823002107441	1	0.0	1210.6477360066492	0.0	187.0		1	0.0	1.0	0.0	1.0	0	458	0	0	0	unknown
4	1	8	21	49312	2186	0.758528594742529	0	1.0	2158.112092001829	0.0			0	1.0	1.0	0.0	1.0	0	459	0	0	0	unknown
4	1	8	22	47707	4615	0.7585748782148584	1	1.0	1179.3367050122467	0.0	82.0		1	1.0	0.0	1.0	2.0	0	460	0	0	0	unknown
4	1	8	23	45484	4306	0.7586211755406111	0	1.0	1602.202784997644	0.0			0	1.0	1.0	0.0	1.0	0	461	0	0	0	unknown
4	1	8	24	14087	5523	0.7586674712365493	0	1.0	2363.2637480041008	0.0			0	1.0	1.0	0.0	1.0	0	462	0	0	0	unknown
4	1	8	25	25876	7974	0.758713771821931	1	1.0	1137.5438570103142	0.0	205.0		1	1.0	0.0	1.0	2.0	0	463	0	0	0	unknown
4	1	8	26	72780	1196	0.7587600603001192	0	1.0	1571.6088020126335	0.0			0	1.0	1.0	0.0	1.0	0	464	0	0	0	unknown
4	1	8	27	1231	9718	0.7588063514558598	1	1.0	1062.1615479758475	0.0	317.0		1	1.0	0.0	1.0	2.0	0	465	0	0	0	unknown
4	1	8	28	35518	9244	0.7588526521576568	0	1.0	2415.858712018234	0.0			0	1.0	1.0	0.0	1.0	0	466	0	0	0	unknown
4	1	8	29	16632	2604	0.758898947155103	0	1.0	2862.767879007152	0.0			0	1.0	1.0	0.0	1.0	0	467	0	0	0	unknown
4	1	8	30	35655	4793	0.7589452404063194	0	1.0	1745.6726389937103	0.0			0	1.0	1.0	0.0	1.0	0	468	0	0	0	unknown
4	1	8	31	71754	988	0.7590378290042281	0	1.0	2896.318783983588	0.0			0	1.0	1.0	0.0	1.0	0	469	1	0	1	new
4	1	8	32	30380	5894	0.7590840276097878	0	1.0	1827.6199300016744	0.0			0	1.0	1.0	0.0	1.0	0	470	0	0	0	unknown
4	1	8	33	5882	1732	0.759130313526839	0	0.0	3023.8466339942534	0.0			0	0.0	0.0	1.0	2.0	0	471	0	0	0	unknown
4	1	8	34	63687	6066	0.7591766067780554	0	0.0	3359.6544280007947	0.0			0	0.0	0.0	1.0	2.0	0	472	0	0	0	unknown
4	1	8	35	1804	7020	0.7592229099245741	0	1.0	1364.3039269954895	0.0			0	1.0	1.0	0.0	1.0	0	473	0	0	0	unknown
4	1	8	36	33503	9798	0.7592691979371011	0	1.0	2373.751968989381	0.0			0	1.0	1.0	0.0	1.0	0	474	0	0	0	unknown
4	1	8	37	72146	1771	0.759315493167378	0	1.0	2181.9928159820847	0.0			0	1.0	1.0	0.0	1.0	0	475	0	0	0	unknown
4	1	8	38	55865	5382	0.7593617828097194	0	1.0	2307.290259021101	0.0			0	1.0	1.0	0.0	1.0	0	476	0	0	0	unknown
4	1	8	39	49683	8917	0.7594080845592543	0	1.0	2008.3769999910144	0.0			0	1.0	1.0	0.0	1.0	0	477	0	0	0	unknown
4	1	8	40	30766	6311	0.7594543708255515	1	1.0	1058.612722001271	0.0	122.0		1	1.0	0.0	1.0	2.0	0	478	0	0	0	unknown
4	1	8	41	36560	5514	0.7595006718765944	0	1.0	1832.9418299836104	0.0			0	1.0	1.0	0.0	1.0	0	479	0	0	0	unknown
4	1	8	42	47051	3924	0.7595932632684707	0	1.0	2265.717232978204	0.0			0	1.0	1.0	0.0	1.0	0	480	0	0	0	unknown
4	1	8	43	16632	2604	0.7596395534928888	1	1.0	1491.8026660161559	0.0	13.0		1	1.0	0.0	1.0	2.0	0	481	0	0	0	unknown
4	1	8	44	47785	1192	0.7596858437173069	1	1.0	1022.5995130022056	0.0	38.0		1	1.0	0.0	1.0	2.0	0	482	0	0	0	unknown
4	1	8	45	17342	2755	0.7597321448847651	0	1.0	2463.785877014743	0.0			0	1.0	1.0	0.0	1.0	0	483	0	0	0	unknown
4	1	8	46	13158	9761	0.7597784422105178	0	1.0	2469.8730959789827	0.0			0	1.0	1.0	0.0	1.0	0	484	0	0	0	unknown
4	1	8	47	51328	1968	0.7598247282439842	0	1.0	1065.3986810066272	0.0			0	1.0	1.0	0.0	1.0	0	485	0	0	0	unknown
4	1	8	48	7730	7559	0.7598710230085998	1	1.0	1365.1330349966884	0.0	268.0		1	1.0	0.0	1.0	2.0	0	486	0	0	0	unknown
4	1	8	49	70147	1551	0.7599173197522759	0	0.0	1384.344041987788	0.0			0	0.0	0.0	1.0	2.0	0	487	0	0	0	unknown
4	1	8	50	1947	6666	0.7599636149825528	1	1.0	1458.0725780106147	0.0	336.0		1	1.0	0.0	1.0	2.0	0	488	0	0	0	unknown
4	1	8	51	35569	8170	0.7600099014816805	1	1.0	893.794125993736	0.0	63.0		1	1.0	0.0	1.0	2.0	0	489	0	0	0	unknown
4	1	8	52	47272	3756	0.7600561948493123	1	1.0	1116.6704350034706	0.0	32.0	252.0	1	1.0	0.0	1.0	2.0	0	490	0	0	0	unknown
4	1	8	53	69685	2262	0.7601025020703673	0	1.0	2574.830326018855	0.0			0	1.0	1.0	0.0	1.0	0	491	0	0	0	unknown
4	1	8	54	38855	4784	0.7601487879874184	1	1.0	1102.4081709911115	0.0	95.0		1	1.0	0.0	1.0	2.0	0	492	0	0	0	unknown
4	1	8	55	40801	5714	0.7602413810091093	1	1.0	1557.7549080189783	0.0	198.0		1	1.0	0.0	1.0	2.0	0	493	0	0	0	unknown
4	1	8	56	31497	1108	0.760287674376741	1	1.0	1117.3841150011867	0.0	279.0	389.0	1	1.0	0.0	1.0	2.0	0	494	0	0	0	unknown
4	1	8	57	57366	1224	0.7603338729823008	0	1.0	2103.03276500781	0.0			0	1.0	1.0	0.0	1.0	0	495	0	0	0	unknown
4	1	8	58	33847	9934	0.7603801662335172	0	0.0	2702.201103005791	0.0			0	0.0	0.0	1.0	2.0	0	496	0	0	0	unknown
4	1	8	59	52195	1317	0.7604264653054997	0	1.0	1801.8977710162287	0.0			0	1.0	1.0	0.0	1.0	0	497	0	0	0	unknown
4	1	8	60	58145	805	0.7604727558791637	0	1.0	1619.1186149953865	0.0			0	1.0	1.0	0.0	1.0	0	498	1	0	1	new
4	1	8	61	53246	5274	0.7605190470349042	0	1.0	1790.2853210107423	0.0			0	1.0	1.0	0.0	1.0	0	499	0	0	0	unknown
4	1	8	62	44057	5350	0.7605653424980118	0	1.0	1317.2301230079029	0.0			0	1.0	1.0	0.0	1.0	0	500	0	0	0	unknown
4	1	9	1	69685	2262	0.7631548608187586	1	1.0	1420.4485829977784	0.0	9.0		1	1.0	0.0	1.0	2.0	0	501	0	0	0	unknown
4	1	9	2	55092	6246	0.7632011594250798	1	1.0	1287.5442049989942	0.0	149.0		1	1.0	0.0	1.0	2.0	0	502	0	0	0	unknown
4	1	9	3	64470	9272	0.7632474537240341	1	1.0	902.5273459847085	0.0	92.0	203.0	1	1.0	0.0	1.0	2.0	0	503	0	0	0	unknown
4	1	9	4	8871	4741	0.7632937498856335	1	1.0	948.9657319791149	0.0	242.0		1	1.0	0.0	1.0	2.0	0	504	0	0	0	unknown
4	1	9	5	11943	145	0.763340039178729	0	1.0	2457.177762000356	1.0			0	1.0	1.0	1.0	1.0	0	505	1	1	1	new
4	1	9	6	14622	6367	0.7633863352239131	0	1.0	2386.580780002987	0.0			0	1.0	1.0	0.0	1.0	0	506	0	0	0	unknown
4	1	9	7	51168	3548	0.76343262498267	1	1.0	1001.8273229943588	0.0	194.0	298.0	1	1.0	0.0	1.0	2.0	0	507	0	0	0	unknown
4	1	9	8	55830	2752	0.7634789239382371	0	1.0	1902.6118679903448	0.0			0	1.0	1.0	0.0	1.0	0	508	0	0	0	unknown
4	1	9	9	19182	230	0.7635252135805785	1	1.0	1146.8048829992767	0.0	74.0		1	1.0	0.0	1.0	2.0	0	509	1	0	2	easy
4	1	9	10	35651	9922	0.7635715048527345	0	1.0	2283.394950994989	0.0			0	1.0	1.0	0.0	1.0	0	510	0	0	0	unknown
4	1	9	11	23476	5889	0.7636177976382896	0	1.0	1619.9705699982587	0.0			0	1.0	1.0	0.0	1.0	0	511	0	0	0	unknown
4	1	9	12	9198	2377	0.7636641004355624	0	0.0	2780.33812798094	0.0			0	0.0	0.0	1.0	2.0	0	512	0	0	0	unknown
4	1	9	13	59468	1492	0.763710395200178	1	1.0	1719.1774290113244	0.0	209.0		1	1.0	0.0	1.0	2.0	0	513	0	0	0	unknown
4	1	9	14	17978	3194	0.7638029807712882	1	1.0	963.2507729984353	0.0	160.0	319.0	1	1.0	0.0	1.0	2.0	0	514	0	0	0	unknown
4	1	9	15	29915	1899	0.763849278097041	0	1.0	2522.567873995285	0.0			0	1.0	1.0	0.0	1.0	0	515	0	0	0	unknown
4	1	9	16	12227	9049	0.7638955633156	0	1.0	2906.6991200088523	0.0			0	1.0	1.0	0.0	1.0	0	516	0	0	0	unknown
4	1	9	17	31405	5081	0.7639418687904252	1	1.0	1052.259332005633	0.0	256.0		1	1.0	0.0	1.0	2.0	0	517	0	0	0	unknown
4	1	9	18	63795	8174	0.763988159247674	1	1.0	1135.7070190133527	0.0	141.0	180.0	1	1.0	0.0	1.0	2.0	0	518	0	0	0	unknown
4	1	9	19	12404	1624	0.7640344538958743	0	1.0	1466.9016019906849	0.0			0	1.0	1.0	0.0	1.0	0	519	0	0	0	unknown
4	1	9	20	38818	511	0.764080748311244	0	0.0	2693.374760972801	0.0			0	0.0	0.0	1.0	2.0	0	520	1	0	1	new
4	1	9	21	15918	4420	0.7641269443556666	0	1.0	3712.9889120114967	1.0			0	1.0	1.0	1.0	1.0	0	521	0	0	0	unknown
4	1	9	22	69214	5745	0.764173239818774	0	1.0	2670.225431997096	0.0			0	1.0	1.0	0.0	1.0	0	522	0	0	0	unknown
4	1	9	23	35517	3492	0.7642195319058372	0	1.0	1585.8460509916767	0.0			0	1.0	1.0	0.0	1.0	0	523	0	0	0	unknown
4	1	9	24	66490	919	0.7642658238764852	0	1.0	1227.6715399930251	0.0			0	1.0	1.0	0.0	1.0	0	524	1	0	1	new
4	1	9	25	54694	5733	0.7643584153847768	0	1.0	1636.2258300068788	0.0			0	1.0	1.0	0.0	1.0	0	525	0	0	0	unknown
4	1	9	26	1009	8542	0.7644047053763642	0	1.0	1703.1385920126922	0.0			0	1.0	1.0	0.0	1.0	0	526	0	0	0	unknown
4	1	9	27	6186	2220	0.7644510039826855	0	1.0	2172.757103020558	0.0			0	1.0	1.0	0.0	1.0	0	527	0	0	0	unknown
4	1	9	28	71233	984	0.7644972993293777	0	1.0	1739.6239489899017	0.0			0	1.0	1.0	0.0	1.0	0	528	1	0	1	new
4	1	9	29	69738	7057	0.7645435931626707	0	1.0	1542.412498005433	0.0			0	1.0	1.0	0.0	1.0	0	529	0	0	0	unknown
4	1	9	30	2617	5896	0.7645898853661492	0	1.0	1402.3746629827656	0.0			0	1.0	1.0	0.0	1.0	0	530	0	0	0	unknown
4	1	9	31	71537	7390	0.7646361785009503	0	1.0	1351.5309499925932	0.0			0	1.0	1.0	0.0	1.0	0	531	0	0	0	unknown
4	1	9	32	30126	5139	0.7646824753610417	0	1.0	1252.93636097922	0.0			0	1.0	1.0	0.0	1.0	0	532	0	0	0	unknown
4	1	9	33	43088	2320	0.7647287701256573	0	1.0	1557.8884290007409	0.0			0	1.0	1.0	0.0	1.0	0	533	0	0	0	unknown
4	1	9	34	9877	6169	0.7647750549949704	0	1.0	1772.6713549927808	0.0			0	1.0	1.0	0.0	1.0	0	534	0	0	0	unknown
4	1	9	35	41499	4523	0.7648213525535538	1	1.0	1441.2850660155527	0.0	522.0		1	1.0	0.0	1.0	2.0	0	535	0	0	0	unknown
4	1	9	36	16271	7240	0.7649139397544786	0	1.0	2760.4747010045685	0.0			0	1.0	1.0	0.0	1.0	0	536	0	0	0	unknown
4	1	9	37	23274	6069	0.7649602314922958	0	1.0	1714.9769559910055	0.0			0	1.0	1.0	0.0	1.0	0	537	0	0	0	unknown
4	1	9	38	49820	6817	0.7650065249763429	0	1.0	1665.5559320061	0.0			0	1.0	1.0	0.0	1.0	0	538	0	0	0	unknown
4	1	9	39	43088	2320	0.7650528257945552	1	1.0	1036.3107010198291	0.0	5.0		1	1.0	0.0	1.0	2.0	0	539	0	0	0	unknown
4	1	9	40	29305	3951	0.7650991214904934	1	1.0	1256.1529540107583	0.0	291.0		1	1.0	0.0	1.0	2.0	0	540	0	0	0	unknown
4	1	9	41	27565	7568	0.7651454185834154	0	1.0	1581.009196001105	0.0			0	1.0	2.0	0.0	1.0	0	541	0	0	0	unknown
4	1	9	42	45303	7447	0.7651917102048174	0	1.0	1120.5826679943127	0.0			0	1.0	1.0	0.0	1.0	0	542	0	0	0	unknown
4	1	9	43	43949	6540	0.7652380050858482	0	1.0	2051.5718999959063	0.0			0	1.0	1.0	0.0	1.0	0	543	0	0	0	unknown
4	1	9	44	16740	2255	0.7652843005489557	0	1.0	2564.1842820041347	0.0			0	1.0	1.0	0.0	1.0	0	544	0	0	0	unknown
4	1	9	45	28921	9088	0.7653768820455297	0	1.0	1994.0712589886969	0.0			0	1.0	1.0	0.0	1.0	0	545	0	0	0	unknown
4	1	9	46	60045	9124	0.7654230800690129	0	0.0	3187.0721879822668	0.0			0	0.0	0.0	1.0	2.0	0	546	0	0	0	unknown
4	1	9	47	49201	3293	0.7654693740187212	1	1.0	1250.2713550056797	0.0	158.0	187.0	1	1.0	0.0	1.0	2.0	0	547	0	0	0	unknown
4	1	9	48	18904	2821	0.7655156733235344	0	1.0	2278.296270000282	0.0			0	1.0	1.0	0.0	1.0	0	548	0	0	0	unknown
4	1	9	49	45544	4095	0.7655619623837993	0	1.0	2417.715859977761	0.0			0	1.0	1.0	0.0	1.0	0	549	0	0	0	unknown
4	1	9	50	38418	4751	0.7656082563335075	1	1.0	1402.6471899996975	0.0	328.0		1	1.0	0.0	1.0	2.0	0	550	0	0	0	unknown
4	1	9	51	17342	2755	0.7656545544741675	1	1.0	1115.180363995023	0.0	67.0		1	1.0	0.0	1.0	2.0	0	551	0	0	0	unknown
4	1	9	52	35421	7655	0.7657008483074605	0	1.0	1804.0153990150427	0.0			0	1.0	1.0	0.0	1.0	0	552	0	0	0	unknown
4	1	9	53	35488	3807	0.7657471349230036	0	1.0	1789.6379840094596	0.0			0	1.0	1.0	0.0	1.0	0	553	0	0	0	unknown
4	1	9	54	45444	3457	0.7657934328308328	1	1.0	1118.063757981872	0.0	267.0	353.0	1	1.0	0.0	1.0	2.0	0	554	0	0	0	unknown
4	1	9	55	27913	8109	0.7658860184019431	1	1.0	1404.0517240064219	0.0	115.0		1	1.0	0.0	1.0	2.0	0	555	0	0	0	unknown
4	1	9	56	65348	6054	0.7659323192201554	0	1.0	1959.9324380105827	0.0			0	1.0	1.0	0.0	1.0	0	556	0	0	0	unknown
4	1	9	57	49566	9508	0.7659786100266501	0	1.0	1602.8969670005608	0.0			0	1.0	1.0	0.0	1.0	0	557	0	0	0	unknown
4	1	9	58	32360	3768	0.7660249040927737	0	1.0	1046.4922709797975	0.0			0	1.0	1.0	0.0	1.0	0	558	0	0	0	unknown
4	1	9	59	60428	6410	0.7660712028155103	0	1.0	1554.6104390232358	0.0			0	1.0	1.0	0.0	1.0	0	559	0	0	0	unknown
4	1	9	60	72620	2328	0.7661174957174807	0	1.0	1942.7130580006633	0.0			0	1.0	1.0	0.0	1.0	0	560	0	0	0	unknown
4	1	9	61	35488	3807	0.7661637859418988	1	1.0	856.9397240062243	0.0	7.0		1	1.0	0.0	1.0	2.0	0	561	0	0	0	unknown
4	1	9	62	41869	7697	0.7662100852467119	0	1.0	1591.1915460019372	0.0			0	1.0	1.0	0.0	1.0	0	562	0	0	0	unknown
4	1	9	63	11210	8816	0.7662563788471743	0	1.0	1614.1374400176571	0.0			0	1.0	1.0	0.0	1.0	0	563	0	0	0	unknown
4	1	10	1	25554	3444	0.7677543625468388	1	1.0	1256.2169400043783	0.0	314.0	482.0	1	1.0	0.0	1.0	2.0	0	564	0	0	0	unknown
4	1	10	2	17369	7744	0.767800674191676	0	1.0	1920.2484849956816	0.0			0	1.0	1.0	0.0	1.0	0	565	0	0	0	unknown
4	1	10	3	34249	6106	0.7678469583624973	1	1.0	983.7812810146717	0.0	107.0	295.0	1	1.0	0.0	1.0	2.0	0	566	0	0	0	unknown
4	1	10	4	18387	1126	0.7678932627895846	0	1.0	1587.0630930003244	0.0			0	1.0	1.0	0.0	1.0	0	567	0	0	0	unknown
4	1	10	5	32514	7339	0.7679395468439906	0	1.0	2288.213221996557	0.0			0	1.0	1.0	0.0	1.0	0	568	0	0	0	unknown
4	1	10	6	69504	2913	0.7679858462652192	0	1.0	1604.510399978608	0.0			0	1.0	1.0	0.0	1.0	0	569	0	0	0	unknown
4	1	10	7	7047	7572	0.7680321304360404	0	1.0	1651.8390210112557	0.0			0	1.0	1.0	0.0	1.0	0	570	0	0	0	unknown
4	1	10	8	68220	8516	0.7680784412659704	1	1.0	1024.0684070158748	0.0	202.0		1	1.0	0.0	1.0	2.0	0	571	0	0	0	unknown
4	1	10	9	49742	6139	0.7681247189175338	0	1.0	2201.8975839891937	0.0			0	1.0	1.0	0.0	1.0	0	572	0	0	0	unknown
4	1	10	10	55178	9261	0.7682173080975189	0	1.0	2368.4495989873535	0.0			0	1.0	1.0	0.0	1.0	0	573	0	0	0	unknown
4	1	10	11	34071	8315	0.7682636112440377	1	1.0	888.2057259907015	0.0	167.0	175.0	1	1.0	0.0	1.0	2.0	0	574	0	0	0	unknown
4	1	10	12	3627	14	0.7683099035639315	0	1.0	1618.3434269914867	0.0			0	1.0	1.0	0.0	1.0	0	575	1	0	1	new
4	1	10	13	19607	5660	0.7683562057791277	1	1.0	1569.5796349900775	0.0	178.0		1	1.0	0.0	1.0	2.0	0	576	0	0	0	unknown
4	1	10	14	65576	6692	0.768402491346933	1	1.0	930.178437003633	0.0	143.0	398.0	1	1.0	0.0	1.0	2.0	0	577	0	0	0	unknown
4	1	10	15	40540	4211	0.768448794959113	0	1.0	1020.121328998357	0.0			0	1.0	1.0	0.0	1.0	0	578	0	0	0	unknown
4	1	10	16	19170	9571	0.7684950770344585	0	1.0	1146.2972500012256	0.0			0	1.0	1.0	0.0	1.0	0	579	0	0	0	unknown
4	1	10	17	47614	9570	0.7685413801809772	0	1.0	2091.8791989970487	0.0			0	1.0	1.0	0.0	1.0	0	580	0	0	0	unknown
4	1	10	18	51949	4400	0.7685876658651977	0	1.0	2022.460937994765	0.0			0	1.0	1.0	0.0	1.0	0	581	0	0	0	unknown
4	1	10	19	67936	8200	0.7686339502688497	0	1.0	2085.542692017043	0.0			0	1.0	1.0	0.0	1.0	0	582	0	0	0	unknown
4	1	10	20	6037	5345	0.768680247478187	0	1.0	2567.973789991811	0.0			0	1.0	1.0	0.0	1.0	0	583	0	0	0	unknown
4	1	10	21	27501	4585	0.7687728345626965	0	1.0	2971.2594079901464	0.0			0	1.0	1.0	0.0	1.0	0	584	0	0	0	unknown
4	1	10	22	31405	5081	0.7688191275810822	1	1.0	673.0076179956086	0.0	67.0	324.0	1	1.0	0.0	1.0	2.0	0	585	0	0	0	unknown
4	1	10	23	70922	7247	0.7688654297962784	0	1.0	2373.2783919840585	0.0			0	1.0	1.0	0.0	1.0	0	586	0	0	0	unknown
4	1	10	24	41608	5960	0.768911720952019	0	1.0	3025.1842600118835	0.0			0	1.0	1.0	0.0	1.0	0	587	0	0	0	unknown
4	1	10	25	17888	6843	0.7689580164151266	1	1.0	933.2483379985204	0.0	244.0	485.0	1	1.0	0.0	1.0	2.0	0	588	0	0	0	unknown
4	1	10	26	56535	2726	0.7690043066395446	0	1.0	1629.987163003534	0.0			0	1.0	1.0	0.0	1.0	0	589	0	0	0	unknown
4	1	10	27	36073	4285	0.7690505980281159	1	1.0	770.7824209937826	0.0	141.0	403.0	1	1.0	0.0	1.0	2.0	0	590	0	0	0	unknown
4	1	10	28	51503	7449	0.7690968922106549	0	1.0	1985.1815380097833	0.0			0	1.0	1.0	0.0	1.0	0	591	0	0	0	unknown
4	1	10	29	69372	3909	0.7691430979175493	0	1.0	1910.702158987988	0.0			0	1.0	1.0	0.0	1.0	0	592	0	0	0	unknown
4	1	10	30	35083	6194	0.7692356798797845	0	1.0	3363.9214490249287	0.0			0	1.0	1.0	0.0	1.0	0	593	0	0	0	unknown
4	1	10	31	19747	3376	0.7692819799995049	1	1.0	977.0126370131038	0.0	484.0		1	1.0	0.0	1.0	2.0	0	594	0	0	0	unknown
4	1	10	32	35403	3500	0.7693282723193988	0	1.0	2317.4903640174302	0.0			0	1.0	1.0	0.0	1.0	0	595	0	0	0	unknown
4	1	10	33	13773	6752	0.7693745680153369	0	1.0	1723.6995839921292	0.0			0	1.0	1.0	0.0	1.0	0	596	0	0	0	unknown
4	1	10	34	17196	4739	0.7694208598695695	0	1.0	1537.2310390230268	0.0			0	1.0	1.0	0.0	1.0	0	597	0	0	0	unknown
4	1	10	35	69023	3456	0.7694671554490923	0	1.0	1545.773504010867	0.0			0	1.0	1.0	0.0	1.0	0	598	0	0	0	unknown
4	1	10	36	19182	230	0.7695134513778612	1	1.0	884.1315649915487	0.0	89.0	164.0	1	1.0	0.0	1.0	2.0	0	599	1	0	3	easy
4	1	10	37	45596	616	0.7695597426500171	1	1.0	1217.7764649968594	0.0	253.0		1	1.0	0.0	1.0	2.0	0	600	1	1	2	easy
4	1	10	38	14529	173	0.7696060393936932	0	1.0	1247.056875989074	0.0			0	1.0	1.0	0.0	1.0	0	601	1	0	1	new
4	1	10	39	45193	2163	0.7696523331105709	0	1.0	1687.8185259993188	0.0			0	1.0	1.0	0.0	1.0	0	602	0	0	0	unknown
4	1	10	40	7601	9008	0.7697449211264029	0	1.0	1920.681549003348	0.0			0	1.0	1.0	0.0	1.0	0	603	0	0	0	unknown
4	1	10	41	19095	4465	0.7697912160074338	0	1.0	2312.1546369802672	0.0			0	1.0	1.0	0.0	1.0	0	604	0	0	0	unknown
4	1	10	42	36476	7198	0.7698375101899728	0	1.0	1469.4648869917728	0.0			0	1.0	1.0	0.0	1.0	0	605	0	0	0	unknown
4	1	10	43	12136	5817	0.769883802277036	0	1.0	1401.9153490080498	0.0			0	1.0	1.0	0.0	1.0	0	606	0	0	0	unknown
4	1	10	44	29509	6148	0.7699300985550507	0	1.0	2001.517150987638	0.0			0	1.0	1.0	0.0	1.0	0	607	0	0	0	unknown
4	1	10	45	30242	4356	0.7699763844721019	0	1.0	1456.7589339858387	0.0			0	1.0	1.0	0.0	1.0	0	608	0	0	0	unknown
4	1	10	46	5030	4186	0.7700226865708827	1	1.0	1064.4126039987896	0.0	494.0		1	1.0	0.0	1.0	2.0	0	609	0	0	0	unknown
4	1	10	47	45206	1703	0.7700689719058573	1	0.0	2460.552397009451	0.0	570.0		1	0.0	1.0	0.0	1.0	0	610	0	0	0	unknown
4	1	10	48	36823	9294	0.7701152752852067	0	1.0	2317.4174510058942	0.0			0	1.0	1.0	0.0	1.0	0	611	0	0	0	unknown
4	1	10	49	30766	6311	0.7701615707483142	1	1.0	2451.8730489944573	0.0	133.0	256.0	1	1.0	0.0	1.0	2.0	0	612	0	0	0	unknown
4	1	10	50	46183	9492	0.770207863068208	0	1.0	3085.894528980134	0.0			0	1.0	1.0	0.0	1.0	0	613	0	0	0	unknown
4	1	10	51	66743	8688	0.7702541566686704	0	1.0	1602.825603011297	0.0			0	1.0	1.0	0.0	1.0	0	614	0	0	0	unknown
4	1	10	52	18475	3319	0.7703467439860106	0	1.0	2136.2717090232763	0.0			0	1.0	1.0	0.0	1.0	0	615	0	0	0	unknown
4	1	10	53	39625	1769	0.7703929428244009	0	1.0	1688.3943779976107	0.0			0	1.0	1.0	0.0	1.0	0	616	0	0	0	unknown
4	1	10	54	4348	8140	0.7704392337473109	0	1.0	1845.685317995958	0.0			0	1.0	1.0	0.0	1.0	0	617	0	0	0	unknown
4	1	10	55	51589	7561	0.770485523622483	0	1.0	2165.558754990343	0.0			0	1.0	1.0	0.0	1.0	0	618	0	0	0	unknown
4	1	10	56	10355	2304	0.7705318259540945	0	1.0	1381.6217129933648	0.0			0	1.0	1.0	0.0	1.0	0	619	0	0	0	unknown
4	1	10	57	49704	2481	0.7705781122203916	0	1.0	1302.2716060222592	0.0			0	1.0	1.0	0.0	1.0	0	620	0	0	0	unknown
4	1	10	58	49856	2880	0.7706244055880233	1	1.0	1385.1594819861928	0.0	402.0		1	1.0	0.0	1.0	2.0	0	621	0	0	0	unknown
4	1	10	59	49312	2186	0.7706707089673727	1	1.0	1612.4863399891183	0.0	162.0		1	1.0	0.0	1.0	2.0	0	622	0	0	0	unknown
4	1	10	60	38333	2935	0.7707170016365125	0	1.0	2235.646157001611	0.0			0	1.0	1.0	0.0	1.0	0	623	0	0	0	unknown
4	1	10	61	42728	5193	0.7707632870879024	0	1.0	2434.612970013404	0.0			0	1.0	1.0	0.0	1.0	0	624	0	0	0	unknown
4	1	10	62	9918	116	0.7708095900015905	1	1.0	1203.2273020013236	0.0	267.0		1	1.0	0.0	1.0	2.0	0	625	1	0	2	easy
4	1	11	1	27880	9647	0.7723891664063557	0	1.0	2939.0211289864965	0.0			0	1.0	1.0	0.0	1.0	0	626	0	0	0	unknown
4	1	11	2	43749	1791	0.7724354624515399	0	1.0	2002.6933049957731	0.0			0	1.0	1.0	0.0	1.0	0	627	0	0	0	unknown
4	1	11	3	57127	1407	0.772481766412966	0	1.0	1691.6653630032667	0.0			0	1.0	1.0	0.0	1.0	0	628	0	0	0	unknown
4	1	11	4	56043	770	0.772528056288138	0	1.0	1805.8465649955904	0.0			0	1.0	1.0	0.0	1.0	0	629	1	0	1	new
4	1	11	5	2842	2830	0.7725743526825681	0	0.0	2234.449487994425	0.0			0	0.0	0.0	1.0	2.0	0	630	0	0	0	unknown
4	1	11	6	38329	2129	0.7726206546649336	0	1.0	1025.2328070055228	0.0			0	1.0	1.0	0.0	1.0	0	631	0	0	0	unknown
4	1	11	7	5758	2579	0.7726669402327389	0	1.0	1764.3911170016509	0.0			0	1.0	1.0	0.0	1.0	0	632	0	0	0	unknown
4	1	11	8	60287	3014	0.7727132459403946	1	1.0	1188.0692710110452	0.0	444.0	540.0	1	1.0	0.0	1.0	2.0	0	633	0	0	0	unknown
4	1	11	9	34239	459	0.7727595302276313	0	0.0	1443.0691649904475	0.0			0	0.0	0.0	1.0	2.0	0	634	1	0	1	new
4	1	11	10	68991	2642	0.772805833723396	0	1.0	1811.8500350101383	0.0			0	1.0	1.0	0.0	1.0	0	635	0	0	0	unknown
4	1	11	11	38147	8996	0.7728521185927093	0	1.0	2430.582956003491	0.0			0	1.0	1.0	0.0	1.0	0	636	0	0	0	unknown
4	1	11	12	69214	5745	0.77289842243772	1	1.0	1101.779735996388	0.0	114.0		1	1.0	0.0	1.0	2.0	0	637	0	0	0	unknown
4	1	11	13	37908	3410	0.7729910091729834	0	1.0	1902.554202009924	0.0			0	1.0	1.0	0.0	1.0	0	638	0	0	0	unknown
4	1	11	14	17529	8116	0.7730372956721112	0	1.0	1267.9819559853058	0.0			0	1.0	1.0	0.0	1.0	0	639	0	0	0	unknown
4	1	11	15	54694	5733	0.7730835953261703	1	1.0	926.7159320006612	0.0	114.0		1	1.0	0.0	1.0	2.0	0	640	0	0	0	unknown
4	1	11	16	29305	3951	0.7731298845028504	1	1.0	915.0164129969198	0.0	100.0	392.0	1	1.0	0.0	1.0	2.0	0	641	0	0	0	unknown
4	1	11	17	6691	1482	0.7731761790346354	0	1.0	1701.9833159865811	0.0			0	1.0	1.0	0.0	1.0	0	642	0	0	0	unknown
4	1	11	18	2388	4599	0.7732224714709445	0	1.0	1903.50414099521	0.0			0	1.0	1.0	0.0	1.0	0	643	0	0	0	unknown
4	1	11	19	22567	4040	0.773268774151802	0	1.0	1728.0549990246072	0.0			0	1.0	1.0	0.0	1.0	0	644	0	0	0	unknown
4	1	11	20	69631	4982	0.773315061116591	0	1.0	2870.937033003429	0.0			0	1.0	1.0	0.0	1.0	0	645	0	0	0	unknown
4	1	11	21	6842	8474	0.7733613587915897	0	1.0	1730.6202159961683	0.0			0	1.0	1.0	0.0	1.0	0	646	0	0	0	unknown
4	1	11	22	17205	9657	0.7734076414490118	1	1.0	1038.3990090049335	0.0	321.0		1	1.0	0.0	1.0	2.0	0	647	0	0	0	unknown
4	1	11	23	34003	6168	0.7735002336557955	0	1.0	1976.883633004036	0.0			0	1.0	1.0	0.0	1.0	0	648	0	0	0	unknown
4	1	11	24	32182	6537	0.7735465399455279	0	1.0	1471.6722079901956	0.0			0	1.0	1.0	0.0	1.0	0	649	0	0	0	unknown
4	1	11	25	67175	4759	0.7735928184119985	0	1.0	1560.2642180165276	0.0			0	1.0	1.0	0.0	1.0	0	650	0	0	0	unknown
4	1	11	26	36560	5514	0.7736391292419283	1	1.0	1081.7808720166795	0.0	171.0		1	1.0	0.0	1.0	2.0	0	651	0	0	0	unknown
4	1	11	27	33653	4620	0.7736854084068909	0	1.0	1721.604621008737	0.0			0	1.0	1.0	0.0	1.0	0	652	0	0	0	unknown
4	1	11	28	11527	7333	0.773731714230962	0	1.0	1301.4736410113983	0.0			0	1.0	1.0	0.0	1.0	0	653	0	0	0	unknown
4	1	11	29	44045	1069	0.7737780010793358	0	1.0	1415.6936130020767	0.0			0	1.0	1.0	0.0	1.0	0	654	0	0	0	unknown
4	1	11	30	6349	1218	0.7738242865307255	0	1.0	1438.722424005391	0.0			0	1.0	1.0	0.0	1.0	0	655	0	0	0	unknown
4	1	11	31	52665	1512	0.7738705894444137	0	1.0	1707.4457479757257	0.0			0	1.0	1.0	0.0	1.0	0	656	0	0	0	unknown
4	1	11	32	2388	4599	0.7739168817643076	1	1.0	869.8257940122858	0.0	13.0		1	1.0	0.0	1.0	2.0	0	657	0	0	0	unknown
4	1	11	33	13257	1040	0.7739631726872175	0	1.0	1758.5206879884936	0.0			0	1.0	1.0	0.0	1.0	0	658	0	0	0	unknown
4	1	11	34	12404	1624	0.7740094639593735	1	1.0	1415.1592379785143	0.0	139.0		1	1.0	0.0	1.0	2.0	0	659	0	0	0	unknown
4	1	11	35	32186	1808	0.774101962801069	1	1.0	1035.871030006092	0.0	333.0		1	1.0	0.0	1.0	2.0	0	660	0	0	0	unknown
4	1	11	36	24806	4690	0.7741482482524588	0	1.0	2026.6253529989624	0.0			0	1.0	1.0	0.0	1.0	0	661	0	0	0	unknown
4	1	11	37	47842	5019	0.774194543948397	0	1.0	3279.129776987247	1.0			0	1.0	1.0	1.0	1.0	0	662	0	0	0	unknown
4	1	11	38	48601	5219	0.7742408447666093	0	1.0	1530.5883900146	0.0			0	1.0	1.0	0.0	1.0	0	663	0	0	0	unknown
4	1	11	39	37745	9102	0.7742871335940436	0	1.0	1519.6489650115836	0.0			0	1.0	1.0	0.0	1.0	0	664	0	0	0	unknown
4	1	11	40	28249	9621	0.7743334242841228	1	1.0	2740.0156700168736	1.0	547.0		1	1.0	1.0	1.0	2.0	0	665	0	0	0	unknown
4	1	11	41	35588	5874	0.7743797306902706	0	1.0	2440.839577000588	0.0			0	1.0	1.0	0.0	1.0	0	666	0	0	0	unknown
4	1	11	42	14122	169	0.7744260195177048	0	1.0	1902.7748219959904	0.0			0	1.0	1.0	0.0	1.0	0	667	1	0	1	new
4	1	11	43	28921	9088	0.7744723095092922	1	1.0	1350.51423398545	0.0	122.0		1	1.0	0.0	1.0	2.0	0	668	0	0	0	unknown
4	1	11	44	18159	4637	0.7745649021817371	0	1.0	1502.3273919941855	0.0			0	1.0	1.0	0.0	1.0	0	669	0	0	0	unknown
4	1	11	45	5385	4522	0.774611193104647	0	1.0	1823.093560000416	0.0			0	1.0	1.0	0.0	1.0	0	670	0	0	0	unknown
4	1	11	46	42627	7224	0.7746574897319078	0	1.0	1344.2171810020227	0.0			0	1.0	1.0	0.0	1.0	0	671	0	0	0	unknown
4	1	11	47	48480	3822	0.7747037825174629	0	1.0	1062.8592729917727	0.0			0	1.0	1.0	0.0	1.0	0	672	0	0	0	unknown
4	1	11	48	41494	6407	0.7747500803088769	0	1.0	1368.3509079855867	0.0			0	1.0	1.0	0.0	1.0	0	673	0	0	0	unknown
4	1	11	49	55180	8393	0.7747963754227384	0	0.0	1114.0716969966888	0.0			0	0.0	0.0	1.0	2.0	0	674	0	0	0	unknown
4	1	11	50	17529	8116	0.774842661456205	1	1.0	969.9052149953785	0.0	35.0		1	1.0	0.0	1.0	2.0	0	675	0	0	0	unknown
4	1	11	51	40816	2044	0.7748889639042317	0	1.0	2016.93881500978	0.0			0	1.0	1.0	0.0	1.0	0	676	0	0	0	unknown
4	1	11	52	28968	3862	0.7749352535465732	1	1.0	1306.166913011111	0.0	247.0		1	1.0	0.0	1.0	2.0	0	677	0	0	0	unknown
4	1	11	53	53546	8019	0.7749815500574186	0	1.0	1630.4817330092192	0.0			0	1.0	1.0	0.0	1.0	0	678	0	0	0	unknown
4	1	11	54	57127	1407	0.7750741337658837	1	1.0	2018.0743329983673	1.0	50.0		1	1.0	1.0	1.0	2.0	0	679	0	0	0	unknown
4	1	11	55	60743	7367	0.7751204322557896	1	1.0	902.9772880021482	0.0	589.0		1	1.0	0.0	1.0	2.0	0	680	0	0	0	unknown
4	1	11	56	28529	8706	0.7751667267875745	0	1.0	2285.1034160121344	0.0			0	1.0	2.0	0.0	1.0	0	681	0	0	0	unknown
4	1	11	57	18960	2753	0.7752130198059602	0	0.0	2906.7783589998726	0.0			0	0.0	0.0	1.0	2.0	0	682	0	0	0	unknown
4	1	11	58	72211	3802	0.7752593094483017	0	1.0	2227.40150601021	0.0			0	1.0	1.0	0.0	1.0	0	683	0	0	0	unknown
4	1	11	59	17205	9657	0.7753056098008528	1	1.0	880.0291630032007	0.0	36.0	358.0	1	1.0	0.0	1.0	2.0	0	684	0	0	0	unknown
4	1	11	60	40801	5714	0.7753519046818838	1	1.0	1282.134260982275	0.0	191.0	390.0	1	1.0	0.0	1.0	2.0	0	685	0	0	0	unknown
4	1	11	61	26352	347	0.7753980937413871	0	1.0	1819.292330997996	0.0			0	1.0	1.0	0.0	1.0	0	686	1	0	1	new
4	1	11	62	5385	4522	0.7754443995654582	1	1.0	902.9337830143048	0.0	16.0		1	1.0	0.0	1.0	2.0	0	687	0	0	0	unknown
4	1	11	63	6717	5102	0.7754906911868602	0	1.0	1932.6097750163167	0.0			0	1.0	1.0	0.0	1.0	0	688	0	0	0	unknown
4	1	12	1	56892	1122	0.7769617801532149	0	1.0	2781.191562011372	1.0			0	1.0	1.0	1.0	1.0	0	689	0	0	0	unknown
4	1	12	2	4787	36	0.777008069679141	1	1.0	1218.6962619889528	0.0	286.0		1	1.0	0.0	1.0	2.0	0	690	1	0	2	easy
4	1	12	3	55390	5273	0.7770543621154502	0	1.0	1703.2471770071425	0.0			0	1.0	1.0	0.0	1.0	0	691	0	0	0	unknown
4	1	12	4	26525	9335	0.7771006622351706	1	1.0	1902.3695570067505	0.0	269.0		1	1.0	0.0	1.0	2.0	0	692	0	0	0	unknown
4	1	12	5	37908	3410	0.777146948268637	1	1.0	1210.7387899886817	0.0	54.0		1	1.0	0.0	1.0	2.0	0	693	0	0	0	unknown
4	1	12	6	8942	5670	0.7771932546747848	0	1.0	1602.9850839986464	0.0			0	1.0	1.0	0.0	1.0	0	694	0	0	0	unknown
4	1	12	7	30123	5449	0.7772395408246666	0	1.0	2202.5902470049914	0.0			0	1.0	1.0	0.0	1.0	0	695	0	0	0	unknown
4	1	12	8	49735	4580	0.7772858433891087	0	1.0	1433.302988007199	0.0			0	1.0	1.0	0.0	1.0	0	696	0	0	0	unknown
4	1	12	9	948	1994	0.7773321287240833	0	1.0	1589.882669999497	0.0			0	1.0	1.0	0.0	1.0	0	697	0	0	0	unknown
4	1	12	10	50933	1386	0.777378425351344	0	1.0	1968.80610199878	0.0			0	1.0	1.0	0.0	1.0	0	698	0	0	0	unknown
4	1	12	11	641	9828	0.7774247161578387	0	1.0	2015.7277209800668	0.0			0	1.0	1.0	0.0	1.0	0	699	0	0	0	unknown
4	1	12	12	41719	9484	0.7774710222147405	1	1.0	1769.0208690182772	0.0	371.0		1	1.0	0.0	1.0	2.0	0	700	0	0	0	unknown
4	1	12	13	20842	1490	0.7775172968395054	0	1.0	1361.4989690249784	0.0			0	1.0	1.0	0.0	1.0	0	701	0	0	0	unknown
4	1	12	14	11160	131	0.7776098924223332	0	1.0	2371.438613976352	0.0			0	1.0	1.0	0.0	1.0	0	702	1	0	1	new
4	1	12	15	46163	5518	0.7776561918435618	0	1.0	1575.1354869862553	0.0			0	1.0	1.0	0.0	1.0	0	703	0	0	0	unknown
4	1	12	16	63939	1103	0.7777024790411815	0	1.0	1551.7995600239371	0.0			0	1.0	1.0	0.0	1.0	0	704	0	0	0	unknown
4	1	12	17	26557	5354	0.7777487864950671	0	1.0	1438.1628750124946	0.0			0	1.0	1.0	0.0	1.0	0	705	0	0	0	unknown
4	1	12	18	23049	8405	0.7777950697345659	0	1.0	1688.9880620001347	0.0			0	1.0	1.0	0.0	1.0	0	706	0	0	0	unknown
4	1	12	19	10700	4272	0.7778413748601452	0	1.0	1514.536892005708	0.0			0	1.0	1.0	0.0	1.0	0	707	0	0	0	unknown
4	1	12	20	31870	9513	0.7778876570519059	0	1.0	2075.070626975503	0.0			0	1.0	1.0	0.0	1.0	0	708	0	0	0	unknown
4	1	12	21	14999	7408	0.7779338523978367	0	1.0	1192.312111001229	0.0			0	1.0	1.0	0.0	1.0	0	709	0	0	0	unknown
4	1	12	22	69504	2913	0.7779801419237627	1	1.0	963.8204729999416	0.0	140.0		1	1.0	0.0	1.0	2.0	0	710	0	0	0	unknown
4	1	12	23	42637	1834	0.7780264454195275	0	1.0	2102.924367005471	0.0			0	1.0	1.0	0.0	1.0	0	711	0	0	0	unknown
4	1	12	24	53498	7141	0.7781190342502668	0	1.0	2108.0928659939673	0.0			0	1.0	1.0	0.0	1.0	0	712	0	0	0	unknown
4	1	12	25	68839	1784	0.7781653181882575	0	1.0	1519.8648560035508	0.0			0	1.0	1.0	0.0	1.0	0	713	0	0	0	unknown
4	1	12	26	10646	3880	0.7782116160960868	0	1.0	2106.902055995306	0.0			0	1.0	1.0	0.0	1.0	0	714	0	0	0	unknown
4	1	12	27	57127	1407	0.7782579150516539	1	1.0	1132.1204039850272	0.0	35.0	86.0	1	1.0	0.0	1.0	2.0	0	715	0	0	0	unknown
4	1	12	28	22842	5778	0.7783042034134268	0	1.0	1844.7818910062776	0.0			0	1.0	1.0	0.0	1.0	0	716	0	0	0	unknown
4	1	12	29	37118	5306	0.7783504996914417	0	0.0	1940.5851699993943	0.0			0	0.0	0.0	1.0	2.0	0	717	0	0	0	unknown
4	1	12	30	5596	6677	0.7783967964351177	0	1.0	1359.6264259831514	0.0			0	1.0	1.0	0.0	1.0	0	718	0	0	0	unknown
4	1	12	31	7524	6378	0.7784430906176567	0	1.0	1620.854123000754	0.0			0	1.0	1.0	0.0	1.0	0	719	0	0	0	unknown
4	1	12	32	71366	2451	0.7784893836360424	1	1.0	1039.7034019988496	0.0	305.0		1	1.0	0.0	1.0	2.0	0	720	0	0	0	unknown
4	1	12	33	48480	3822	0.7785356804961338	1	1.0	1269.4163539854344	0.0	48.0		1	1.0	0.0	1.0	2.0	0	721	0	0	0	unknown
4	1	12	34	26362	5870	0.7786282653687521	0	1.0	2178.4396709990688	0.0			0	1.0	1.0	0.0	1.0	0	722	0	0	0	unknown
4	1	12	35	10793	2567	0.7786745532648637	0	0.0	2702.2494609991554	0.0			0	0.0	0.0	1.0	2.0	0	723	0	0	0	unknown
4	1	12	36	43146	1446	0.7787208550143986	0	1.0	2541.408210003283	0.0			0	1.0	1.0	0.0	1.0	0	724	0	0	0	unknown
4	1	12	37	14529	173	0.7787671472178772	1	1.0	941.3278330175672	0.0	123.0		1	1.0	0.0	1.0	2.0	0	725	1	0	2	easy
4	1	12	38	17602	5360	0.7788134369766339	0	1.0	1619.7303560038563	0.0			0	1.0	1.0	0.0	1.0	0	726	0	0	0	unknown
4	1	12	39	34003	6168	0.7788597284816206	1	1.0	891.3921129715163	0.0	78.0		1	1.0	0.0	1.0	2.0	0	727	0	0	0	unknown
4	1	12	40	2388	4599	0.7789060364011675	1	1.0	1002.1223750081843	0.0	70.0	84.0	1	1.0	0.0	1.0	2.0	0	728	0	0	0	unknown
4	1	12	41	22033	4614	0.7789523224346339	0	1.0	1192.2191609919537	0.0			0	1.0	1.0	0.0	1.0	0	729	0	0	0	unknown
4	1	12	42	64824	8417	0.778998614521697	0	1.0	2618.132336996496	1.0			0	1.0	1.0	1.0	1.0	0	730	0	0	0	unknown
4	1	12	43	54323	2034	0.7790912081254646	0	1.0	1114.159124001162	0.0			0	1.0	1.0	0.0	1.0	0	731	0	0	0	unknown
4	1	12	44	29838	398	0.7791375005617737	0	1.0	1260.8771529921796	0.0			0	1.0	1.0	0.0	1.0	0	732	1	0	1	new
4	1	12	45	253	8629	0.779183697188273	0	1.0	1014.4177489855792	0.0			0	1.0	1.0	0.0	1.0	0	733	0	0	0	unknown
4	1	12	46	25974	1411	0.7792299955617636	0	1.0	1122.2612830169965	0.0			0	1.0	1.0	0.0	1.0	0	734	0	0	0	unknown
4	1	12	47	45122	2152	0.779276279034093	0	1.0	863.4388530044816	0.0			0	1.0	1.0	0.0	1.0	0	735	0	0	0	unknown
4	1	12	48	69977	6858	0.779322576476261	0	1.0	958.8060610112734	0.0			0	1.0	1.0	0.0	1.0	0	736	0	0	0	unknown
4	1	12	49	72298	9391	0.7793688790407031	0	1.0	814.31754399091	0.0			0	1.0	1.0	0.0	1.0	0	737	0	0	0	unknown
4	1	12	50	26557	5354	0.7794151708949357	1	1.0	1128.9647429948673	0.0	32.0		1	1.0	0.0	1.0	2.0	0	738	0	0	0	unknown
4	1	12	51	58145	805	0.7794614692684262	1	1.0	1212.4654599756468	0.0	240.0		1	1.0	0.0	1.0	2.0	0	739	1	0	2	easy
4	1	12	52	51262	4665	0.779554052860476	0	0.0	1888.0309759988447	0.0			0	0.0	0.0	1.0	2.0	0	740	0	0	0	unknown
4	1	12	53	51589	7561	0.7796003504190593	1	1.0	886.9455410167575	0.0	122.0		1	1.0	0.0	1.0	2.0	0	741	0	0	0	unknown
4	1	12	54	12568	8160	0.7796466388972476	0	1.0	2951.715090981452	1.0			0	1.0	1.0	1.0	1.0	0	742	0	0	0	unknown
4	1	12	55	42579	2161	0.7796929366886615	0	0.0	2327.575749019161	1.0			0	0.0	1.0	1.0	2.0	0	743	0	0	0	unknown
4	1	12	56	50711	7903	0.7797392229549586	0	1.0	2123.3080359816086	0.0			0	1.0	1.0	0.0	1.0	0	744	0	0	0	unknown
4	1	12	57	38009	7560	0.7797855217941105	0	1.0	1389.207042986527	0.0			0	1.0	1.0	0.0	1.0	0	745	0	0	0	unknown
4	1	12	58	6706	2370	0.7798318157438188	0	1.0	843.9176550018601	0.0			0	1.0	1.0	0.0	1.0	0	746	0	0	0	unknown
4	1	12	59	8041	2563	0.7798781065503135	0	1.0	2427.65211200458	1.0			0	1.0	1.0	1.0	1.0	0	747	0	0	0	unknown
4	1	12	60	48682	670	0.7799243989866226	0	1.0	1633.5833100019954	0.0			0	1.0	1.0	0.0	1.0	0	748	1	0	1	new
4	1	12	61	9208	9409	0.7799707000376656	0	1.0	1901.4902140188497	0.0			0	1.0	1.0	0.0	1.0	0	749	0	0	0	unknown
4	1	12	62	5567	9681	0.7800169910769909	0	1.0	2451.175330003025	0.0			0	1.0	1.0	0.0	1.0	0	750	0	0	0	unknown
4	2	1	1	65780	8819	14.73309281701222	0	1.0	2140.1831759721968	0.0			0	1.0	1.0	0.0	1.0	0	751	0	0	0	unknown
4	2	1	2	57140	2972	14.733139143791048	0	1.0	1667.1543379779905	0.0			0	1.0	1.0	0.0	1.0	0	752	0	0	0	unknown
4	2	1	3	14595	175	14.733185415738262	0	1.0	1454.5932720066048	0.0			0	1.0	1.0	0.0	1.0	0	753	1	0	1	new
4	2	1	4	9877	6169	14.733231739839537	1	1.0	2340.091794030741	0.0	219.0		0	0.0	0.0	1.0	2.0	0	754	0	0	0	unknown
4	2	1	5	67498	1591	14.733277997700496	0	1.0	1612.734432972502	0.0			0	1.0	1.0	0.0	1.0	0	755	0	0	0	unknown
4	2	1	6	65486	4692	14.733324336353688	0	1.0	2008.178149990272	0.0			0	1.0	1.0	0.0	1.0	0	756	0	0	0	unknown
4	2	1	7	47806	4152	14.733370588743128	0	1.0	1972.081462969072	0.0			0	1.0	1.0	0.0	1.0	0	757	0	0	0	unknown
4	2	1	8	59886	7167	14.733416933799163	0	1.0	2096.9227409805167	0.0			0	1.0	1.0	0.0	1.0	0	758	0	0	0	unknown
4	2	1	9	19095	4465	14.733463175944053	1	0.0	2187.6116559724323	0.0	154.0		0	1.0	1.0	0.0	1.0	0	759	0	0	0	unknown
4	2	1	10	50763	5313	14.73350952763576	0	1.0	1577.027402992826	0.0			0	1.0	1.0	0.0	1.0	0	760	0	0	0	unknown
4	2	1	11	24481	305	14.733555762912147	0	1.0	1534.6802279818803	0.0			0	1.0	1.0	0.0	1.0	0	761	1	0	1	new
4	2	1	12	19582	9575	14.733602126128972	1	0.0	1361.995956976898	0.0	346.0		0	1.0	1.0	0.0	1.0	0	762	0	0	0	unknown
4	2	1	13	36975	487	14.733648349298164	0	1.0	1402.7025129762478	0.0			0	1.0	1.0	0.0	1.0	0	763	1	1	1	new
4	2	1	14	17823	3997	14.733694723341614	0	1.0	1648.396665987093	0.0			0	1.0	1.0	0.0	1.0	0	764	0	0	0	unknown
4	2	1	15	71537	7390	14.733787317061797	1	0.0	1995.0541830039583	0.0	233.0		0	1.0	1.0	0.0	1.0	0	765	0	0	0	unknown
4	2	1	16	16349	1277	14.73383352102246	0	1.0	1726.2249200139195	0.0			0	1.0	1.0	0.0	1.0	0	766	0	0	0	unknown
4	2	1	17	9130	2195	14.73387990228366	0	1.0	1432.613287004642	0.0			0	1.0	1.0	0.0	1.0	0	767	0	0	0	unknown
4	2	1	18	5942	5101	14.733926113462076	0	1.0	1908.733388001565	0.0			0	1.0	1.0	0.0	1.0	0	768	0	0	0	unknown
4	2	1	19	10957	1826	14.733972498215733	0	1.0	2660.942046029959	0.0			0	1.0	1.0	0.0	1.0	0	769	0	0	0	unknown
4	2	1	20	67498	1591	14.734018702991307	1	1.0	945.0129870092496	0.0	14.0		1	1.0	0.0	1.0	2.0	0	770	0	0	0	unknown
4	2	1	21	41102	2080	14.734065095894039	0	1.0	1335.9469459974207	0.0			0	1.0	1.0	0.0	1.0	0	771	0	0	0	unknown
4	2	1	22	40970	3804	14.73411129391752	0	1.0	1129.827499971725	0.0			0	1.0	1.0	0.0	1.0	0	772	0	0	0	unknown
4	2	1	23	24277	2773	14.73415749229025	0	1.0	1434.364871995058	0.0			0	1.0	1.0	0.0	1.0	0	773	0	0	0	unknown
4	2	1	24	6037	5345	14.734250086941756	1	0.0	2415.1434439700097	0.0	190.0		0	1.0	1.0	0.0	1.0	0	774	0	0	0	unknown
4	2	1	25	66021	7130	14.73429636354558	1	1.0	3056.2979510286823	0.0	336.0	497.0	0	0.0	0.0	1.0	2.0	0	775	0	0	0	unknown
4	2	1	26	52543	3770	14.73434267018456	1	0.0	1420.6360219977796	0.0	646.0		0	1.0	1.0	0.0	1.0	0	776	0	0	0	unknown
4	2	1	27	50933	1386	14.73438895435538	1	0.0	2352.095414011273	0.0	78.0		0	1.0	1.0	0.0	1.0	0	777	0	0	0	unknown
4	2	1	28	11291	9317	14.73443525028415	0	1.0	2203.686435008421	0.0			0	1.0	1.0	0.0	1.0	0	778	0	0	0	unknown
4	2	1	29	41645	8105	14.734481541905552	0	1.0	1181.7821889999323	0.0			0	1.0	1.0	0.0	1.0	0	779	0	0	0	unknown
4	2	1	30	9907	8280	14.734527835156769	1	0.0	2729.394307010807	0.0	413.0		0	1.0	1.0	0.0	1.0	0	780	0	0	0	unknown
4	2	1	31	36911	485	14.734574139351023	0	1.0	1480.941122979857	0.0			0	1.0	1.0	0.0	1.0	0	781	1	0	1	new
4	2	1	32	16703	200	14.73462043039035	0	1.0	1924.1410489776167	0.0			0	1.0	1.0	0.0	1.0	0	782	1	0	1	new
4	2	1	33	57829	9130	14.734666717937216	0	1.0	1466.7680589482188	0.0			0	1.0	1.0	0.0	1.0	0	783	0	0	0	unknown
4	2	1	34	24401	2587	14.734713014797308	0	1.0	1561.6695489734411	0.0			0	1.0	1.0	0.0	1.0	0	784	0	0	0	unknown
4	2	1	35	37969	2904	14.734759311424568	0	1.0	1039.434470993001	0.0			0	1.0	1.0	0.0	1.0	0	785	0	0	0	unknown
4	2	1	36	11870	4239	14.73485189396888	0	1.0	1778.9623819990084	0.0			0	1.0	1.0	0.0	1.0	0	786	0	0	0	unknown
4	2	1	37	62111	8001	14.734898196533322	0	1.0	1502.4843409773891	0.0			0	1.0	1.0	0.0	1.0	0	787	0	0	0	unknown
4	2	1	38	32322	3312	14.734944490599444	0	1.0	1631.4065580372699	0.0			0	1.0	1.0	0.0	1.0	0	788	0	0	0	unknown
4	2	1	39	15322	6903	14.734990788507275	0	1.0	1256.3710729591548	0.0			0	1.0	1.0	0.0	1.0	0	789	0	0	0	unknown
4	2	1	40	50763	5313	14.735037078498863	1	1.0	1192.2490080469288	0.0	29.0		1	1.0	0.0	1.0	2.0	0	790	0	0	0	unknown
4	2	1	41	20145	5567	14.735083369771019	0	1.0	1346.8748499872163	0.0			0	1.0	1.0	0.0	1.0	0	791	0	0	0	unknown
4	2	1	42	16743	9012	14.73512966663111	0	1.0	1366.7735999915749	0.0			0	1.0	1.0	0.0	1.0	0	792	0	0	0	unknown
4	2	1	43	25189	5208	14.735175955458544	0	1.0	2538.233890023548	0.0			0	1.0	1.0	0.0	1.0	0	793	0	0	0	unknown
4	2	1	44	24923	3475	14.735222249291835	0	1.0	1914.8905689944515	0.0			0	1.0	1.0	0.0	1.0	0	794	0	0	0	unknown
4	2	1	45	10830	2336	14.73526854882948	1	1.0	2311.796535970643	0.0	366.0	433.0	0	0.0	0.0	1.0	2.0	0	795	0	0	0	unknown
4	2	1	46	7601	9008	14.735361138009466	1	1.0	2202.6430429541506	0.0	192.0		0	0.0	0.0	1.0	2.0	0	796	0	0	0	unknown
4	2	1	47	25876	7974	14.735407429747283	1	1.0	1614.509425999131	0.0	333.0	539.0	0	0.0	0.0	1.0	2.0	0	797	0	0	0	unknown
4	2	1	48	48734	8441	14.735453722067176	1	0.0	2508.8174649863504	0.0	582.0		0	1.0	1.0	0.0	1.0	0	798	0	0	0	unknown
4	2	1	49	5603	53	14.735500010312535	1	1.0	2127.467155980412	0.0	565.0		0	0.0	0.0	1.0	2.0	0	799	1	0	2	hard
4	2	1	50	3627	14	14.735546313109808	1	0.0	2081.750984012615	0.0	224.0		0	1.0	1.0	0.0	1.0	0	800	1	0	2	hard
4	2	1	51	16740	2255	14.7355926054297	1	1.0	2934.5477599999867	1.0	256.0		0	0.0	1.0	1.0	2.0	0	801	0	0	0	unknown
4	2	1	52	6369	4096	14.735638806479985	0	1.0	2003.6586559726857	0.0			0	1.0	1.0	0.0	1.0	0	802	0	0	0	unknown
4	2	1	53	61749	848	14.735685097984968	0	1.0	1905.8897019713183	0.0			0	1.0	1.0	0.0	1.0	0	803	1	0	1	new
4	2	1	54	25933	4139	14.73573138890788	0	1.0	1586.6090049967167	0.0			0	1.0	1.0	0.0	1.0	0	804	0	0	0	unknown
4	2	1	55	32831	9969	14.735823977622204	0	1.0	1668.5935760033317	0.0			0	1.0	1.0	0.0	1.0	0	805	0	0	0	unknown
4	2	1	56	58146	5604	14.735870272619648	0	1.0	2120.601670991164	0.0			0	1.0	1.0	0.0	1.0	0	806	0	0	0	unknown
4	2	1	57	8534	5629	14.735916568548419	0	1.0	2081.7107150214724	0.0			0	1.0	1.0	0.0	1.0	0	807	0	0	0	unknown
4	2	1	58	1433	5555	14.735962864593603	0	1.0	2104.3201260035858	0.0			0	1.0	1.0	0.0	1.0	0	808	0	0	0	unknown
4	2	1	59	8007	86	14.73600915877614	0	1.0	2101.373909972608	0.0			0	1.0	1.0	0.0	1.0	0	809	1	0	1	new
4	2	1	60	17890	7292	14.736055452027358	0	1.0	2403.036843985319	0.0			0	1.0	1.0	0.0	1.0	0	810	0	0	0	unknown
4	2	1	61	71130	2391	14.736101745977066	0	1.0	2259.96482296614	0.0			0	1.0	1.0	0.0	1.0	0	811	0	0	0	unknown
4	2	1	62	44347	1282	14.736148032010531	0	1.0	3103.430603048764	0.0			0	1.0	1.0	0.0	1.0	0	812	0	0	0	unknown
4	2	1	63	45122	2152	14.736194332130252	1	0.0	2910.988343006465	0.0	77.0		0	1.0	1.0	0.0	1.0	0	813	0	0	0	unknown
4	2	2	1	5915	7785	14.737573411432095	0	1.0	1707.285289012361	0.0			0	1.0	1.0	0.0	1.0	0	814	0	0	0	unknown
4	2	2	2	26116	4946	14.737619728664868	0	1.0	1950.31653100159	0.0			0	1.0	1.0	0.0	1.0	0	815	0	0	0	unknown
4	2	2	3	1001	6483	14.737666008761153	0	1.0	1367.5421150401235	0.0			0	1.0	1.0	0.0	1.0	0	816	0	0	0	unknown
4	2	2	4	52259	1436	14.737712310510688	0	1.0	811.7599149700254	0.0			0	1.0	1.0	0.0	1.0	0	817	0	0	0	unknown
4	2	2	5	64948	6808	14.737758594797924	0	1.0	1411.8898840388283	0.0			0	1.0	1.0	0.0	1.0	0	818	0	0	0	unknown
4	2	2	6	23318	6129	14.737804902601056	0	1.0	1531.3163420069031	0.0			0	1.0	1.0	0.0	1.0	0	819	0	0	0	unknown
4	2	2	7	9606	3625	14.737851183861494	0	1.0	1190.790444961749	0.0			0	1.0	1.0	0.0	1.0	0	820	0	0	0	unknown
4	2	2	8	32033	4127	14.737897479790263	0	0.0	2781.9665399729274	0.0			0	0.0	0.0	1.0	2.0	0	821	0	0	0	unknown
4	2	2	9	4787	36	14.737943768268453	1				131.0	418.0	0		0.0	0.0		0	822	1	0	3	hard
4	2	2	10	9606	3625	14.7379900731612	1	1.0	2545.913437032141	1.0	2.0		1	1.0	1.0	1.0	2.0	0	823	0	0	0	unknown
4	2	2	11	17920	8509	14.738082658033818	0	1.0	2131.006344978232	0.0			0	1.0	1.0	0.0	1.0	0	824	0	0	0	unknown
4	2	2	12	9675	7629	14.738128846976906	0	1.0	1986.24524200568	0.0			0	1.0	1.0	0.0	1.0	0	825	0	0	0	unknown
4	2	2	13	6349	1218	14.738175146630963	1	1.0	1269.411007000599	0.0	170.0		0	0.0	0.0	1.0	2.0	0	826	0	0	0	unknown
4	2	2	14	60428	6410	14.738221440464258	1	0.0	2445.9148219903	0.0	267.0		0	1.0	1.0	0.0	1.0	0	827	0	0	0	unknown
4	2	2	15	13139	159	14.738267726032063	0	1.0	2129.8454829957336	0.0			0	1.0	1.0	0.0	1.0	0	828	1	1	1	new
4	2	2	16	36911	485	14.738314028014427	1	1.0	1402.0511989947408	0.0	47.0		1	1.0	0.0	1.0	2.0	0	829	1	0	2	easy
4	2	2	17	68028	3127	14.738360319403	0	1.0	1939.8918620427137	0.0			0	1.0	1.0	0.0	1.0	0	830	0	0	0	unknown
4	2	2	18	24261	9744	14.738406610442324	0	1.0	2019.3289919989184	0.0			0	1.0	1.0	0.0	1.0	0	831	0	0	0	unknown
4	2	2	19	70625	3412	14.738452907302417	0	1.0	2411.163773969747	0.0			0	1.0	1.0	0.0	1.0	0	832	0	0	0	unknown
4	2	2	20	69051	9461	14.738499204861	0	1.0	2439.315717027057	0.0			0	1.0	1.0	0.0	1.0	0	833	0	0	0	unknown
4	2	2	21	33653	4620	14.73859179241117	1	0.0	1885.1078530424277	0.0	181.0		0	1.0	1.0	0.0	1.0	0	834	0	0	0	unknown
4	2	2	22	52214	4250	14.738638086244464	0	1.0	2061.046082992106	0.0			0	1.0	1.0	0.0	1.0	0	835	0	0	0	unknown
4	2	2	23	11210	8816	14.738684377400205	1	0.0	2121.2904659914784	0.0	272.0		0	1.0	1.0	0.0	1.0	0	836	0	0	0	unknown
4	2	2	24	24401	2587	14.738730675540864	1	1.0	1275.4537330474705	0.0	52.0		1	1.0	0.0	1.0	2.0	0	837	0	0	0	unknown
4	2	2	25	47866	7627	14.73877697228454	0	1.0	2268.3494609664194	0.0			0	1.0	1.0	0.0	1.0	0	838	0	0	0	unknown
4	2	2	26	25455	327	14.738823264022356	0	1.0	3188.1459560245275	0.0			0	1.0	1.0	0.0	1.0	0	839	1	0	1	new
4	2	2	27	17537	7054	14.73886955413036	0	1.0	2072.373142000288	0.0			0	1.0	1.0	0.0	1.0	0	840	0	0	0	unknown
4	2	2	28	59385	6637	14.738915851572528	0	1.0	2285.0253420183435	0.0			0	1.0	1.0	0.0	1.0	0	841	0	0	0	unknown
4	2	2	29	53029	4945	14.738962145638652	0	1.0	2388.8525029760785	0.0			0	1.0	1.0	0.0	1.0	0	842	0	0	0	unknown
4	2	2	30	25958	3524	14.739008441800252	0	0.0	2900.1751499599777	0.0			0	0.0	0.0	1.0	2.0	0	843	0	0	0	unknown
4	2	2	31	713	8854	14.739054728881456	0	1.0	1767.5831600208767	0.0			0	1.0	1.0	0.0	1.0	0	844	0	0	0	unknown
4	2	2	32	48480	3822	14.739101027604192	1	1.0	1505.652271967847	0.0	123.0	172.0	0	0.0	0.0	1.0	2.0	0	845	0	0	0	unknown
4	2	2	33	14529	173	14.739147323183715	1	1.0	1256.223891978152	0.0	120.0	244.0	0	0.0	0.0	1.0	2.0	0	846	1	0	3	hard
4	2	2	34	1376	3975	14.739239905495197	0	1.0	2414.1688719973895	0.0			0	1.0	1.0	0.0	1.0	0	847	0	0	0	unknown
4	2	2	35	67309	8077	14.73928620503284	0	1.0	2240.4279600013974	0.0			0	1.0	1.0	0.0	1.0	0	848	0	0	0	unknown
4	2	2	36	67443	3935	14.739332497585565	0	1.0	1912.703149020672	0.0			0	1.0	1.0	0.0	1.0	0	849	0	0	0	unknown
4	2	2	37	25189	5208	14.73937878711149	1	1.0	1093.9303010236472	0.0	56.0		1	1.0	0.0	1.0	2.0	0	850	0	0	0	unknown
4	2	2	38	24045	3179	14.739424983621573	0	1.0	2403.256828954909	0.0			0	1.0	1.0	0.0	1.0	0	851	0	0	0	unknown
4	2	2	39	40927	1189	14.739471286302432	0	1.0	2349.562541989144	0.0			0	1.0	1.0	0.0	1.0	0	852	0	0	0	unknown
4	2	2	40	25979	8403	14.739517579437232	0	1.0	2752.135864982847	0.0			0	1.0	1.0	0.0	1.0	0	853	0	0	0	unknown
4	2	2	41	43440	1776	14.739563873852603	0	1.0	1846.857681986876	0.0			0	1.0	1.0	0.0	1.0	0	854	0	0	0	unknown
4	2	2	42	35782	4187	14.739610166638158	0	1.0	2466.2062249844894	0.0			0	1.0	1.0	0.0	1.0	0	855	0	0	0	unknown
4	2	2	43	40876	3769	14.739656461053528	0	1.0	1834.8950750078077	0.0			0	1.0	1.0	0.0	1.0	0	856	0	0	0	unknown
4	2	2	44	52225	4812	14.739749050000682	0	1.0	1802.4573989678172	0.0			0	1.0	1.0	0.0	1.0	0	857	0	0	0	unknown
4	2	2	45	38952	6635	14.739795341622084	0	1.0	2235.76246900484	0.0			0	1.0	1.0	0.0	1.0	0	858	0	0	0	unknown
4	2	2	46	20842	1490	14.739841636503115	1	1.0	2370.2647329773754	0.0	157.0		0	0.0	0.0	1.0	2.0	0	859	0	0	0	unknown
4	2	2	47	19170	9571	14.73988793150056	1	0.0	2001.4982589636927	0.0	280.0		0	1.0	1.0	0.0	1.0	0	860	0	0	0	unknown
4	2	2	48	50933	1386	14.739934224402532	1	1.0	1127.5480600306764	0.0	83.0	162.0	1	1.0	0.0	1.0	2.0	0	861	0	0	0	unknown
4	2	2	49	2617	5896	14.739980514743364	1	0.0	2520.872877968941	0.0	331.0		0	1.0	1.0	0.0	1.0	0	862	0	0	0	unknown
4	2	2	50	42778	3371	14.740026814048178	0	1.0	2664.974745013751	0.0			0	1.0	1.0	0.0	1.0	0	863	0	0	0	unknown
4	2	2	51	61396	8303	14.740073108114302	0	1.0	3188.4600699995644	0.0			0	1.0	1.0	0.0	1.0	0	864	0	0	0	unknown
4	2	2	52	51685	8258	14.740119404508732	0	1.0	1408.8748960057271	0.0			0	1.0	1.0	0.0	1.0	0	865	0	0	0	unknown
4	2	2	53	71931	2854	14.74016569671221	0	1.0	1607.2384839644656	0.0			0	1.0	1.0	0.0	1.0	0	866	0	0	0	unknown
4	2	2	54	69214	5745	14.740258282399736	1	1.0	1640.7920889905652	0.0	229.0	344.0	0	0.0	0.0	1.0	2.0	0	867	0	0	0	unknown
4	2	2	55	42658	8175	14.740304572624154	1	0.0	2019.677074975334	0.0	449.0		0	1.0	1.0	0.0	1.0	0	868	0	0	0	unknown
4	2	2	56	62861	6851	14.740350868203675	0	1.0	1982.7404630486851	0.0			0	1.0	1.0	0.0	1.0	0	869	0	0	0	unknown
4	2	2	57	9231	108	14.740397167857736	0	1.0	1251.5737080248073	0.0			0	1.0	1.0	0.0	1.0	0	870	1	0	1	new
4	2	2	58	14595	175	14.740443460061215	1	1.0	903.59503403306	0.0	117.0		1	1.0	0.0	1.0	2.0	0	871	1	0	2	easy
4	2	2	59	62861	6851	14.740489746327512	1	1.0	1003.1580590293742	0.0	2.0		1	1.0	0.0	1.0	2.0	0	872	0	0	0	unknown
4	2	2	60	61396	8303	14.740536049590446	1	1.0	866.6931609623134	0.0	8.0		1	1.0	0.0	1.0	2.0	0	873	0	0	0	unknown
4	2	2	61	9492	3663	14.74058233865071	0	1.0	1632.7854429837316	0.0			0	1.0	1.0	0.0	1.0	0	874	0	0	0	unknown
4	2	2	62	10957	1826	14.74062853353098	1	1.0	1138.738440000452	0.0	105.0		1	1.0	0.0	1.0	2.0	0	875	0	0	0	unknown
4	2	3	1	61749	848	14.74233898811508	1	1.0	1248.7531559891067	0.0	72.0		1	1.0	0.0	1.0	2.0	0	876	1	0	2	easy
4	2	3	2	28638	1143	14.74238528625574	0	1.0	1512.1035290067084	0.0			0	1.0	1.0	0.0	1.0	0	877	0	0	0	unknown
4	2	3	3	35287	2020	14.74243157915771	0	1.0	2860.2026510052383	1.0			0	1.0	2.0	1.0	1.0	0	878	0	0	0	unknown
4	2	3	4	50252	3783	14.7424778790446	0	1.0	2613.775153993629	0.0			0	1.0	1.0	0.0	1.0	0	879	0	0	0	unknown
4	2	3	5	52225	4812	14.742524169385431	1	1.0	791.8432089500129	0.0	22.0		1	1.0	0.0	1.0	2.0	0	880	0	0	0	unknown
4	2	3	6	9049	106	14.74257046438288	0	1.0	2041.4726330200208	0.0			0	1.0	1.0	0.0	1.0	0	881	1	0	1	new
4	2	3	7	19611	4361	14.742616756237112	0	1.0	2654.300427995622	0.0			0	1.0	1.0	0.0	1.0	0	882	0	0	0	unknown
4	2	3	8	28286	1626	14.74266304518096	0	1.0	1802.9415940400213	0.0			0	1.0	1.0	0.0	1.0	0	883	0	0	0	unknown
4	2	3	9	3206	3996	14.74270934436936	1	0.0	2673.776793992147	0.0	568.0		0	1.0	1.0	0.0	1.0	0	884	0	0	0	unknown
4	2	3	10	31091	4292	14.742755628773011	0	1.0	1957.0872850017624	0.0			0	1.0	1.0	0.0	1.0	0	885	0	0	0	unknown
4	2	3	11	28529	8706	14.742848224239424	1	0.0	2017.7571100066411	0.0	204.0		0	1.0	1.0	0.0	1.0	0	886	0	0	0	unknown
4	2	3	12	68179	1420	14.7428945194697	0	1.0	1651.8382980138995	0.0			0	1.0	1.0	0.0	1.0	0	887	0	0	0	unknown
4	2	3	13	19381	9893	14.742940816329792	0	1.0	2265.275355021004	0.0			0	1.0	1.0	0.0	1.0	0	888	0	0	0	unknown
4	2	3	14	67013	7841	14.742987112724222	0	1.0	2018.9951789798213	0.0			0	1.0	1.0	0.0	1.0	0	889	0	0	0	unknown
4	2	3	15	5515	1803	14.743033401551656	0	1.0	2287.574907008093	0.0			0	1.0	1.0	0.0	1.0	0	890	0	0	0	unknown
4	2	3	16	13257	1040	14.743079698644578	1	0.0	3023.012779012788	0.0	232.0		0	1.0	1.0	0.0	1.0	0	891	0	0	0	unknown
4	2	3	17	26306	3284	14.743125988403335	1	0.0	1930.9952479670756	0.0	761.0		0	1.0	1.0	0.0	1.0	0	892	0	0	0	unknown
4	2	3	18	65986	1498	14.743172286194747	0	1.0	2553.3939570304938	0.0			0	1.0	1.0	0.0	1.0	0	893	0	0	0	unknown
4	2	3	19	49600	2485	14.743218484567478	0	1.0	1768.2294700061902	0.0			0	1.0	1.0	0.0	1.0	0	894	0	0	0	unknown
4	2	3	20	7601	9008	14.74331107037142	1	1.0	1002.6753260171972	0.0	98.0	291.0	1	1.0	0.0	1.0	2.0	0	895	0	0	0	unknown
4	2	3	21	41719	9484	14.743357358966023	1	1.0	2279.236844973638	0.0	195.0	567.0	0	0.0	0.0	1.0	2.0	0	896	0	0	0	unknown
4	2	3	22	948	1994	14.743403660482725	1	0.0	1924.0835520322437	0.0	199.0		0	1.0	1.0	0.0	1.0	0	897	0	0	0	unknown
4	2	3	23	46000	625	14.743449955247343	0	1.0	2465.4312959755766	0.0			0	1.0	1.0	0.0	1.0	0	898	1	0	1	new
4	2	3	24	65780	8819	14.743496248614974	1	1.0	880.4689149837941	0.0	147.0		1	1.0	0.0	1.0	2.0	0	899	0	0	0	unknown
4	2	3	25	1804	7020	14.743542534881271	1	0.0	3051.3459169887938	1.0	426.0		0	1.0	1.0	1.0	1.0	0	900	0	0	0	unknown
4	2	3	26	42852	570	14.743588841171004	0	1.0	1602.038215030916	0.0			0	1.0	1.0	0.0	1.0	0	901	1	1	1	new
4	2	3	27	46837	7066	14.743635132792404	0	1.0	2901.2839249917306	0.0			0	1.0	1.0	0.0	1.0	0	902	0	0	0	unknown
4	2	3	28	51730	7410	14.743681418476626	0	1.0	2672.438051959034	0.0			0	1.0	1.0	0.0	1.0	0	903	0	0	0	unknown
4	2	3	29	51213	7306	14.743727721972393	0	1.0	2327.109633013606	0.0			0	1.0	1.0	0.0	1.0	0	904	0	0	0	unknown
4	2	3	30	5915	7785	14.743820311268792	1	1.0	1071.5160560212098	0.0	90.0		1	1.0	0.0	1.0	2.0	0	905	0	0	0	unknown
4	2	3	31	47806	4152	14.743866601493208	1	1.0	1003.5955979838036	0.0	148.0		1	1.0	0.0	1.0	2.0	0	906	0	0	0	unknown
4	2	3	32	17363	1645	14.743912887061015	1	1.0	2103.4249290241855	0.0	682.0		0	0.0	0.0	1.0	2.0	0	907	0	0	0	unknown
4	2	3	33	22516	276	14.743959190673195	0	1.0	2203.0100710107945	0.0			0	1.0	1.0	0.0	1.0	0	908	1	0	1	new
4	2	3	34	32127	1475	14.744005483807996	0	1.0	2258.1408830010328	0.0			0	1.0	1.0	0.0	1.0	0	909	0	0	0	unknown
4	2	3	35	15701	1102	14.744051780900916	0	1.0	1803.6360759870147	0.0			0	1.0	1.0	0.0	1.0	0	910	0	0	0	unknown
4	2	3	36	52225	4812	14.744098072289487	1	1.0	934.5992120215667	0.0	30.0	53.0	1	1.0	0.0	1.0	2.0	0	911	0	0	0	unknown
4	2	3	37	47806	4152	14.744144367752597	1	1.0	839.1192990238777	0.0	5.0	154.0	1	1.0	0.0	1.0	2.0	0	912	0	0	0	unknown
4	2	3	38	36911	485	14.744190659606828	1	1.0	1175.8772269822657	0.0	83.0	131.0	1	1.0	0.0	1.0	2.0	0	913	1	0	3	easy
4	2	3	39	40841	534	14.74423695495352	0	1.0	2501.4910619938746	0.0			0	1.0	1.0	0.0	1.0	0	914	1	0	1	new
4	2	3	40	51589	7561	14.744283241801895	1	1.0	1736.9368969812056	0.0	173.0	296.0	0	0.0	0.0	1.0	2.0	0	915	0	0	0	unknown
4	2	3	41	56705	7116	14.744329543667844	0	0.0	2904.639205953572	0.0			0	0.0	0.0	1.0	2.0	0	916	0	0	0	unknown
4	2	3	42	65360	4035	14.744422036921604	0	1.0	2575.571523979306	0.0			0	1.0	1.0	0.0	1.0	0	917	0	0	0	unknown
4	2	3	43	42203	6077	14.744468326098284	0	1.0	1701.7317449790423	0.0			0	1.0	1.0	0.0	1.0	0	918	0	0	0	unknown
4	2	3	44	68165	4593	14.744514621095732	0	1.0	2003.2712329993956	0.0			0	1.0	1.0	0.0	1.0	0	919	0	0	0	unknown
4	2	3	45	16106	4442	14.744560908409767	0	1.0	2203.3660740125924	0.0			0	1.0	1.0	0.0	1.0	0	920	0	0	0	unknown
4	2	3	46	57829	9130	14.744607211905532	1	1.0	1320.6627080217004	0.0	137.0		1	1.0	0.0	1.0	2.0	0	921	0	0	0	unknown
4	2	3	47	61749	848	14.744653505389579	1	1.0	1461.6255359724164	0.0	45.0	118.0	1	1.0	0.0	1.0	2.0	0	922	1	0	3	easy
4	2	3	48	47608	5221	14.74469979701098	0	0.0	1556.167330010794	0.0			0	0.0	0.0	1.0	2.0	0	923	0	0	0	unknown
