SUBJECT	SESSION	RUN	TRIAL	73KID	10KID	TIME	ISOLD	ISCORRECT	RT	CHANGEMIND	MEMORYRECENT	MEMORYFIRST	ISOLDCURRENT	ISCORRECTCURRENT	TOTAL1	TOTAL2	BUTTON	MISSINGDATA	trial_full	is_shared1000	is_special100	shared1000_repNum	presentation_type
3	1	1	1	46003	626	0.3994380474323406	0	1.0	1570.91433100868	0.0			0	1.0	1	0	1.0	0	1	1	0	1	new
3	1	1	2	19257	5013	0.3994843562832102	0	1.0	712.9139919998124	0.0			0	1.0	1	0	1.0	0	2	0	0	0	unknown
3	1	1	3	36386	4850	0.3995306392898783	0	1.0	589.6681779995561	0.0			0	1.0	1	0	1.0	0	3	0	0	0	unknown
3	1	1	4	44343	8823	0.3995769404573366	0	1.0	558.7335070013069	0.0			0	1.0	1	0	1.0	0	4	0	0	0	unknown
3	1	1	5	62685	9538	0.3996232200879603	0	1.0	473.76825100218406	0.0			0	1.0	1	0	1.0	0	5	0	0	0	unknown
3	1	1	6	48340	6061	0.3996695297537371	0	1.0	601.5421990014147	0.0			0	1.0	1	0	1.0	0	6	0	0	0	unknown
3	1	1	7	65141	4421	0.399715808336623	0	1.0	560.4724279983202	0.0			0	1.0	1	0	1.0	0	7	0	0	0	unknown
3	1	1	8	33348	3858	0.3997621024027466	0	1.0	478.2871249917662	0.0			0	1.0	1	0	1.0	0	8	0	0	0	unknown
3	1	1	9	33573	8124	0.3998083993792533	0	1.0	458.93502500257455	0.0			0	1.0	1	0	1.0	0	9	0	0	0	unknown
3	1	1	10	15093	4843	0.3998546992661431	0	1.0	761.8285219941754	0.0			0	1.0	1	0	1.0	0	10	0	0	0	unknown
3	1	1	11	54015	7941	0.3999009805265814	0	1.0	883.7484370014862	0.0			0	1.0	1	0	1.0	0	11	0	0	0	unknown
3	1	1	12	53207	4523	0.3999472779687494	0	1.0	784.8221519961953	0.0			0	1.0	1	0	1.0	0	12	0	0	0	unknown
3	1	1	13	64902	1070	0.4000398609787225	0	1.0	793.8177150062983	0.0			0	1.0	1	0	1.0	0	13	0	0	0	unknown
3	1	1	14	16797	9588	0.4000861629610881	0	1.0	664.8089780064765	0.0			0	1.0	1	0	1.0	0	14	0	0	0	unknown
3	1	1	15	46129	4623	0.4001324489945545	0	1.0	558.8534569978947	0.0			0	1.0	1	0	1.0	0	15	0	0	0	unknown
3	1	1	16	55355	3185	0.4001787519082427	0	1.0	512.655022990657	0.0			0	1.0	1	0	1.0	0	16	0	0	0	unknown
3	1	1	17	9188	4586	0.4002250380581244	0	1.0	757.7250619942787	0.0			0	1.0	1	0	1.0	0	17	0	0	0	unknown
3	1	1	18	47059	1009	0.4002713405061513	0	1.0	855.3858750092331	0.0			0	1.0	1	0	1.0	0	18	0	0	0	unknown
3	1	1	19	21621	8634	0.4003176310798153	0	1.0	729.9651889916275	0.0			0	1.0	1	0	1.0	0	19	0	0	0	unknown
3	1	1	20	34676	9648	0.4003638321300968	0	1.0	574.203692987794	0.0			0	1.0	1	0	1.0	0	20	0	0	0	unknown
3	1	1	21	35718	9425	0.4004101180471479	0	1.0	544.1167570097605	0.0			0	1.0	1	0	1.0	0	21	0	0	0	unknown
3	1	1	22	22658	1344	0.4004564201459288	0	1.0	644.3831539945677	0.0			0	1.0	1	0	1.0	0	22	0	0	0	unknown
3	1	1	23	37985	7441	0.4005490066483616	0	1.0	671.6996489994926	0.0			0	1.0	1	0	1.0	0	23	0	0	0	unknown
3	1	1	24	57359	3902	0.4005952948937192	0	1.0	857.5044439930934	0.0			0	1.0	1	0	1.0	0	24	0	0	0	unknown
3	1	1	25	65096	8795	0.400641598040238	0	1.0	701.5260110056261	0.0			0	1.0	1	0	1.0	0	25	0	0	0	unknown
3	1	1	26	39922	1840	0.4006878912914544	0	1.0	638.076720002573	0.0			0	1.0	1	0	1.0	0	26	0	0	0	unknown
3	1	1	27	48302	1356	0.4007341850083321	0	1.0	731.3396639947315	0.0			0	1.0	1	0	1.0	0	27	0	0	0	unknown
3	1	1	28	37591	5506	0.4007804810535162	0	1.0	645.0737470004242	0.0			0	1.0	1	0	1.0	0	28	0	0	0	unknown
3	1	1	29	48618	666	0.400826773722656	0	1.0	602.9672519944144	0.0			0	1.0	1	0	1.0	0	29	1	0	1	new
3	1	1	30	59973	8240	0.4008730599889531	0	1.0	615.0121690006927	0.0			0	1.0	1	0	1.0	0	30	0	0	0	unknown
3	1	1	31	11632	7232	0.4009193618549033	0	1.0	705.7018909981707	0.0			0	1.0	1	0	1.0	0	31	0	0	0	unknown
3	1	1	32	1398	5691	0.4009656579000875	0	1.0	553.9047730126185	0.0			0	1.0	1	0	1.0	0	32	0	0	0	unknown
3	1	1	33	38532	6661	0.4010119478916749	0	1.0	465.7316800003173	0.0			0	1.0	1	0	1.0	0	33	0	0	0	unknown
3	1	1	34	65258	2400	0.4010582396294921	0	1.0	593.061735999072	0.0			0	1.0	1	0	1.0	0	34	0	0	0	unknown
3	1	1	35	63299	2252	0.4011508307885378	0	1.0	692.324407005799	0.0			0	1.0	1	0	1.0	0	35	0	0	0	unknown
3	1	1	36	44981	612	0.4011971188010647	0	1.0	687.6469260023441	0.0			0	1.0	1	0	1.0	0	36	1	0	1	new
3	1	1	37	66004	1609	0.4012434177566319	0	1.0	641.1797210021177	0.0			0	1.0	1	0	1.0	0	37	0	0	0	unknown
3	1	1	38	4582	3579	0.4012897098436951	0	1.0	557.1128930023406	0.0			0	1.0	1	0	1.0	0	38	0	0	0	unknown
3	1	1	39	17276	1703	0.401336001814343	0	1.0	550.5132569960551	0.0			0	1.0	1	0	1.0	0	39	0	0	0	unknown
3	1	1	40	22076	9976	0.4013823065906763	0	1.0	869.428712001536	0.0			0	1.0	1	0	1.0	0	40	0	0	0	unknown
3	1	1	41	72181	5770	0.4014285935554653	0	1.0	593.1762289983453	0.0			0	1.0	1	0	1.0	0	41	0	0	0	unknown
3	1	1	42	23639	8748	0.4014748862246051	0	1.0	638.2500809995689	0.0			0	1.0	1	0	1.0	0	42	0	0	0	unknown
3	1	1	43	12018	9202	0.4015211804071441	0	1.0	685.9476780082332	0.0			0	1.0	2	0	1.0	0	43	0	0	0	unknown
3	1	1	44	63760	3123	0.4015673813410103	0	1.0	880.2495160052786	0.0			0	1.0	1	0	1.0	0	44	0	0	0	unknown
3	1	1	45	32626	436	0.4016136777354404	0	1.0	732.3857040028087	0.0			0	1.0	1	0	1.0	0	45	1	0	1	new
3	1	1	46	9188	4586	0.401706259115599	1	1.0	1276.594610986649	1.0	28.0		1	1.0	1	1	2.0	0	46	0	0	0	unknown
3	1	1	47	36914	1499	0.4017525514354929	0	1.0	966.3114369905088	0.0			0	1.0	1	0	1.0	0	47	0	0	0	unknown
3	1	1	48	11064	2872	0.4017988535342738	0	1.0	931.5696080011548	0.0			0	1.0	1	0	1.0	0	48	0	0	0	unknown
3	1	1	49	9020	9173	0.4018451392184942	0	1.0	1102.3419669945724	0.0			0	1.0	1	0	1.0	0	49	0	0	0	unknown
3	1	1	50	31426	2665	0.4018914413172751	0	1.0	855.2502929960609	0.0			0	1.0	1	0	1.0	0	50	0	0	0	unknown
3	1	1	51	62700	1045	0.4019377324730157	0	1.0	924.8285570065491	0.0			0	1.0	1	0	1.0	0	51	0	0	0	unknown
3	1	1	52	6631	1974	0.4019840207183733	0	1.0	788.7246760074049	0.0			0	1.0	1	0	1.0	0	52	0	0	0	unknown
3	1	1	53	8954	2268	0.4020303159486502	0	1.0	771.6364180087111	0.0			0	1.0	1	0	1.0	0	53	0	0	0	unknown
3	1	1	54	56177	7771	0.4020766195608302	0	1.0	1312.2277770016808	0.0			0	1.0	1	0	1.0	0	54	0	0	0	unknown
3	1	1	55	41422	6336	0.4021692024543881	0	1.0	1230.008632002864	0.0			0	1.0	1	0	1.0	0	55	0	0	0	unknown
3	1	1	56	53053	727	0.4022154948906973	0	1.0	831.8981780030299	0.0			0	1.0	1	0	1.0	0	56	1	1	1	new
3	1	1	57	4931	40	0.4022617943119257	0	1.0	974.4795470032842	0.0			0	1.0	1	0	1.0	0	57	1	0	1	new
3	1	1	58	65119	6000	0.402308085351251	0	1.0	1117.8175320092123	0.0			0	1.0	1	0	1.0	0	58	0	0	0	unknown
3	1	1	59	72130	7046	0.4023543859366327	0	1.0	1102.9627780080773	0.0			0	1.0	1	0	1.0	0	59	0	0	0	unknown
3	1	1	60	40450	1607	0.4024006770923733	0	1.0	826.2003900017589	0.0			0	1.0	1	0	1.0	0	60	0	0	0	unknown
3	1	1	61	47783	2132	0.402446971158497	0	1.0	971.6851510020205	0.0			0	1.0	1	0	1.0	0	61	0	0	0	unknown
3	1	1	62	52462	5352	0.4024932580068707	0	1.0	812.951197993243	0.0			0	1.0	1	0	1.0	0	62	0	0	0	unknown
3	1	1	63	28428	2514	0.4025395506760105	0	1.0	981.4125489938305	0.0			0	1.0	2	0	1.0	0	63	0	0	0	unknown
3	1	2	1	11222	5730	0.4041528986999765	0	1.0	555.4207749955822	0.0			0	1.0	1	0	1.0	0	64	0	0	0	unknown
3	1	2	2	43995	4135	0.4041991857811808	0	1.0	786.5228409937117	0.0			0	1.0	1	0	1.0	0	65	0	0	0	unknown
3	1	2	3	70574	5169	0.4042454893933609	0	1.0	602.2241410100833	0.0			0	1.0	1	0	1.0	0	66	0	0	0	unknown
3	1	2	4	16394	5821	0.4042917813640087	0	1.0	613.8035320036579	0.0			0	1.0	1	0	1.0	0	67	0	0	0	unknown
3	1	2	5	36907	8842	0.4043380686780437	0	1.0	680.6480119994376	0.0			0	1.0	1	0	1.0	0	68	0	0	0	unknown
3	1	2	6	43995	4135	0.4043843677500262	1	1.0	1064.4471179984976	0.0	3.0		1	1.0	0	1	2.0	0	69	0	0	0	unknown
3	1	2	7	62938	4990	0.4044306625146418	0	1.0	907.2408830106723	0.0			0	1.0	1	0	1.0	0	70	0	0	0	unknown
3	1	2	8	25075	9955	0.4044769530883058	0	1.0	878.0439020047197	0.0			0	1.0	1	0	1.0	0	71	0	0	0	unknown
3	1	2	9	44654	7331	0.4045232480857521	0	1.0	1111.0460459894966	0.0			0	1.0	1	0	1.0	0	72	0	0	0	unknown
3	1	2	10	67903	3470	0.4045695447130128	0	1.0	877.5729179906193	0.0			0	1.0	1	0	1.0	0	73	0	0	0	unknown
3	1	2	11	55827	9913	0.4046158386627212	0	1.0	561.9118150061695	0.0			0	1.0	1	0	1.0	0	74	0	0	0	unknown
3	1	2	12	20608	3207	0.4047084195772185	0	1.0	614.4953390030423	0.0			0	1.0	1	0	1.0	0	75	0	0	0	unknown
3	1	2	13	44838	5799	0.4047547143418341	0	1.0	555.7316210033605	0.0			0	1.0	1	0	1.0	0	76	0	0	0	unknown
3	1	2	14	25730	4068	0.404801009572111	0	1.0	592.3559369985014	0.0			0	1.0	1	0	1.0	0	77	0	0	0	unknown
3	1	2	15	2876	2204	0.404847310623154	0	1.0	826.5150009974604	0.0			0	1.0	1	0	1.0	0	78	0	0	0	unknown
3	1	2	16	5713	7081	0.404893604456447	0	1.0	1169.7159670002293	0.0			0	1.0	1	0	1.0	0	79	0	0	0	unknown
3	1	2	17	18826	3632	0.40493989828974	0	1.0	1027.7355090074707	0.0			0	1.0	1	0	1.0	0	80	0	0	0	unknown
3	1	2	18	34917	3444	0.4049861864186823	0	1.0	672.8781830024673	0.0			0	1.0	1	0	1.0	0	81	0	0	0	unknown
3	1	2	19	32125	2840	0.4050324901472777	0	1.0	742.2528820025037	0.0			0	1.0	1	0	1.0	0	82	0	0	0	unknown
3	1	2	20	48560	1538	0.4050787817686796	0	1.0	717.6390860113315	0.0			0	1.0	1	0	1.0	0	83	0	0	0	unknown
3	1	2	21	3821	8951	0.4051713690860196	0	1.0	670.170440003858	0.0			0	1.0	1	0	1.0	0	84	0	0	0	unknown
3	1	2	22	11868	8009	0.4052176639670506	0	1.0	748.7020789994857	0.0			0	1.0	1	0	1.0	0	85	0	0	0	unknown
3	1	2	23	41307	5772	0.4052639530273154	0	1.0	560.2435170003446	0.0			0	1.0	1	0	1.0	0	86	0	0	0	unknown
3	1	2	24	52657	5200	0.405310254311189	0	1.0	580.2649300021585	0.0			0	1.0	1	0	1.0	0	87	0	0	0	unknown
3	1	2	25	25134	7984	0.405356544884853	0	1.0	615.7728840044001	0.0			0	1.0	1	0	1.0	0	88	0	0	0	unknown
3	1	2	26	53306	9865	0.4054028398822993	0	1.0	993.0615750054129	0.0			0	1.0	1	0	1.0	0	89	0	0	0	unknown
3	1	2	27	55349	7367	0.4054490402340888	0	1.0	875.4567559954013	0.0			0	1.0	1	0	1.0	0	90	0	0	0	unknown
3	1	2	28	32626	436	0.4054953276645392	1	1.0	1179.6977740013972	0.0	45.0		1	1.0	0	1	2.0	0	91	1	0	2	easy
3	1	2	29	27752	3014	0.4055416256887838	0	1.0	1079.0259140048875	0.0			0	1.0	1	0	1.0	0	92	0	0	0	unknown
3	1	2	30	10366	3569	0.4055879204533994	0	1.0	702.9709600028582	0.0			0	1.0	1	0	1.0	0	93	0	0	0	unknown
3	1	2	31	15375	6871	0.4056805112631991	0	1.0	856.7361739987973	0.0			0	1.0	1	0	1.0	0	94	0	0	0	unknown
3	1	2	32	59168	4263	0.4057268016040325	0	1.0	602.9236070025945	0.0			0	1.0	1	0	1.0	0	95	0	0	0	unknown
3	1	2	33	18079	3694	0.4057730952044948	0	1.0	633.1275200063828	0.0			0	1.0	1	0	1.0	0	96	0	0	0	unknown
3	1	2	34	70915	5322	0.4058193870587274	0	1.0	712.6750879979227	0.0			0	1.0	1	0	1.0	0	97	0	0	0	unknown
3	1	2	35	39430	4061	0.4058656824054196	0	1.0	938.5698890109779	0.0			0	1.0	1	0	1.0	0	98	0	0	0	unknown
3	1	2	36	5809	7985	0.4059119754238054	0	1.0	1472.4428310000803	0.0			0	1.0	1	0	1.0	0	99	0	0	0	unknown
3	1	2	37	53692	6041	0.4059582718182355	0	1.0	817.345319999731	0.0			0	1.0	1	0	1.0	0	100	0	0	0	unknown
3	1	2	38	16061	6142	0.4060045649530366	0	1.0	667.5749569985783	0.0			0	1.0	1	0	1.0	0	101	0	0	0	unknown
3	1	2	39	51314	6843	0.4060508613474667	0	1.0	703.2815099955769	0.0			0	1.0	1	0	1.0	0	102	0	0	0	unknown
3	1	2	40	70074	7442	0.4060971493599936	0	1.0	657.3083810071694	0.0			0	1.0	1	0	1.0	0	103	0	0	0	unknown
3	1	2	41	60119	1108	0.406189743662253	0	1.0	780.545752000762	0.0			0	1.0	1	0	1.0	0	104	0	0	0	unknown
3	1	2	42	4053	9936	0.406236040405929	0	1.0	661.412127010408	0.0			0	1.0	1	0	1.0	0	105	0	0	0	unknown
3	1	2	43	8823	2757	0.4062823298154398	0	1.0	878.6236599989933	0.0			0	1.0	1	0	1.0	0	106	0	0	0	unknown
3	1	2	44	31894	9658	0.406328625511378	0	1.0	1106.8022510007722	0.0			0	1.0	1	0	1.0	0	107	0	0	0	unknown
3	1	2	45	70574	5169	0.4063749115448445	1	1.0	938.7374450016067	0.0	41.0		1	1.0	0	1	2.0	0	108	0	0	0	unknown
3	1	2	46	57067	3376	0.4064212082885205	0	1.0	903.072686007363	0.0			0	1.0	1	0	1.0	0	109	0	0	0	unknown
3	1	2	47	5986	7287	0.4064675051486119	0	1.0	903.7027720041805	0.0			0	1.0	1	0	1.0	0	110	0	0	0	unknown
3	1	2	48	16884	5363	0.4065138052683323	0	1.0	812.0784929924412	0.0			0	1.0	1	0	1.0	0	111	0	0	0	unknown
3	1	2	49	57209	5834	0.406560095376335	0	1.0	1403.2322009879863	0.0			0	1.0	1	0	1.0	0	112	0	0	0	unknown
3	1	2	50	46071	6448	0.4066063846694305	0	1.0	762.6861059980001	0.0			0	1.0	1	0	1.0	0	113	0	0	0	unknown
3	1	2	51	68894	4186	0.4066525879316031	0	1.0	713.9426449866733	0.0			0	1.0	1	0	1.0	0	114	0	0	0	unknown
3	1	2	52	20918	9715	0.4066988814156502	0	1.0	743.8635370053815	0.0			0	1.0	1	0	1.0	0	115	0	0	0	unknown
3	1	2	53	24357	1430	0.4067914629122242	0	1.0	662.9139550059335	0.0			0	1.0	1	0	1.0	0	116	0	0	0	unknown
3	1	2	54	57631	9621	0.4068377587245777	0	1.0	655.3485539916437	0.0			0	1.0	1	0	1.0	0	117	0	0	0	unknown
3	1	2	55	22888	7112	0.4068840523250401	0	1.0	557.7238280093297	0.0			0	1.0	1	0	1.0	0	118	0	0	0	unknown
3	1	2	56	58758	9845	0.4069303456926718	0	1.0	939.4592610042307	0.0			0	1.0	1	0	1.0	0	119	0	0	0	unknown
3	1	2	57	53130	7473	0.4069766470929607	0	1.0	802.2239129932132	0.0			0	1.0	1	0	1.0	0	120	0	0	0	unknown
3	1	2	58	6432	60	0.4070229378994554	0	1.0	715.9257339953912	0.0			0	1.0	1	0	1.0	0	121	1	0	1	new
3	1	2	59	8823	2757	0.4070692363893613	1	1.0	946.686655996018	0.0	15.0		1	1.0	0	1	2.0	0	122	0	0	0	unknown
3	1	2	60	45999	2704	0.4071155305719003	0	1.0	620.5964970140485	0.0			0	1.0	1	0	1.0	0	123	0	0	0	unknown
3	1	2	61	21621	8634	0.4071618153247982	1	0.0	730.5506859993329	0.0	104.0		1	0.0	1	0	1.0	0	124	0	0	0	unknown
3	1	2	62	16259	4900	0.4072081182384863	0	1.0	617.9912900115596	0.0			0	1.0	1	0	1.0	0	125	0	0	0	unknown
3	1	3	1	11023	7336	0.4088523082900792	0	1.0	715.3612719994271	0.0			0	1.0	1	0	1.0	0	126	0	0	0	unknown
3	1	3	2	70336	970	0.4088986151618883	0	1.0	965.5699220020325	0.0			0	1.0	1	0	1.0	0	127	1	0	1	new
3	1	3	3	32890	4229	0.4089448958402499	0	1.0	1157.0369839901105	0.0			0	1.0	1	0	1.0	0	128	0	0	0	unknown
3	1	3	4	47314	3770	0.4089911959599703	0	1.0	653.073184992536	0.0			0	1.0	1	0	1.0	0	129	0	0	0	unknown
3	1	3	5	39885	3284	0.4090374842053279	0	1.0	617.100784991635	0.0			0	1.0	1	0	1.0	0	130	0	0	0	unknown
3	1	3	6	52935	6316	0.4090837872354313	0	1.0	601.4907520002453	0.0			0	1.0	1	0	1.0	0	131	0	0	0	unknown
3	1	3	7	42166	1266	0.4091300634900107	0	1.0	559.371248993557	0.0			0	1.0	1	0	1.0	0	132	0	0	0	unknown
3	1	3	8	36577	479	0.4091763803735375	0	1.0	610.8537669933867	0.0			0	1.0	1	0	1.0	0	133	1	0	1	new
3	1	3	9	32224	6277	0.4092226542998105	0	1.0	517.4492980004288	0.0			0	1.0	1	0	1.0	0	134	0	0	0	unknown
3	1	3	10	4578	9754	0.4092689640820026	0	1.0	653.739109999151	0.0			0	1.0	1	0	1.0	0	135	0	0	0	unknown
3	1	3	11	67843	7300	0.4093615561723709	0	1.0	706.2933449924458	0.0			0	1.0	1	0	1.0	0	136	0	0	0	unknown
3	1	3	12	35919	1104	0.4094078377820551	0	1.0	779.3385280092479	0.0			0	1.0	1	0	1.0	0	137	0	0	0	unknown
3	1	3	13	53374	7313	0.4094541445374488	0	1.0	561.005898998701	0.0			0	1.0	1	0	1.0	0	138	0	0	0	unknown
3	1	3	14	65715	3250	0.409500416717492	0	1.0	803.4595639910549	0.0			0	1.0	1	0	1.0	0	139	0	0	0	unknown
3	1	3	15	53670	6726	0.4095467294100672	0	1.0	648.6660820082761	0.0			0	1.0	1	0	1.0	0	140	0	0	0	unknown
3	1	3	16	72172	8054	0.4095930156763643	0	1.0	535.8556949940976	0.0			0	1.0	1	0	1.0	0	141	0	0	0	unknown
3	1	3	17	13656	7613	0.4096393110230565	0	1.0	463.4864010004094	0.0			0	1.0	1	0	1.0	0	142	0	0	0	unknown
3	1	3	18	36567	6236	0.4096855976385995	0	1.0	552.9686350055272	0.0			0	1.0	1	0	1.0	0	143	0	0	0	unknown
3	1	3	19	60038	2259	0.4097319080028682	0	1.0	676.7142039898317	0.0			0	1.0	1	0	1.0	0	144	0	0	0	unknown
3	1	3	20	38523	3968	0.4097781882155686	0	1.0	586.1397299886448	0.0			0	1.0	1	0	1.0	0	145	0	0	0	unknown
3	1	3	21	32480	2980	0.4098244967171922	0	1.0	521.7387300072005	0.0			0	1.0	1	0	1.0	0	146	0	0	0	unknown
3	1	3	22	51199	9718	0.4098707761149853	0	1.0	611.2870829965686	0.0			0	1.0	1	0	1.0	0	147	0	0	0	unknown
3	1	3	23	46174	1550	0.4099170687841251	0	1.0	901.9735100009711	0.0			0	1.0	1	0	1.0	0	148	0	0	0	unknown
3	1	3	24	32480	2980	0.4099633664591237	1	1.0	2538.2512399955885	1.0	2.0		1	1.0	1	1	2.0	0	149	0	0	0	unknown
3	1	3	25	38357	6274	0.4100559522630646	0	1.0	729.8927680094492	0.0			0	1.0	1	0	1.0	0	150	0	0	0	unknown
3	1	3	26	66945	6666	0.4101022467948496	0	1.0	635.1075200072955	0.0			0	1.0	1	0	1.0	0	151	0	0	0	unknown
3	1	3	27	69603	3580	0.4101485427236184	0	1.0	902.6586580002912	0.0			0	1.0	1	0	1.0	0	152	0	0	0	unknown
3	1	3	28	57047	791	0.4101948300376534	0	1.0	886.2527290038997	0.0			0	1.0	1	0	1.0	0	153	1	0	1	new
3	1	3	29	56177	7771	0.4102411289932206	1	0.0	1458.3911079971583	0.0	99.0		1	0.0	1	0	1.0	0	154	0	0	0	unknown
3	1	3	30	5809	7985	0.4102874250384047	1	1.0	879.5104279997759	0.0	55.0		1	1.0	0	1	2.0	0	155	0	0	0	unknown
3	1	3	31	11261	5651	0.4103337199194356	0	1.0	1694.5538540021516	0.0			0	1.0	1	0	1.0	0	156	0	0	0	unknown
3	1	3	32	70103	4786	0.4103799136355519	0	1.0	812.6334239932476	0.0			0	1.0	1	0	1.0	0	157	0	0	0	unknown
3	1	3	33	33818	5910	0.4104262045584619	0	1.0	883.4721769962924	0.0			0	1.0	1	0	1.0	0	158	0	0	0	unknown
3	1	3	34	42849	6588	0.4104725092183798	0	1.0	607.1964000002481	0.0			0	1.0	1	0	1.0	0	159	0	0	0	unknown
3	1	3	35	38481	5925	0.4105187918758019	0	1.0	676.9706869963557	0.0			0	1.0	1	0	1.0	0	160	0	0	0	unknown
3	1	3	36	51150	5699	0.4106113902525976	0	1.0	607.0545219990889	0.0			0	1.0	1	0	1.0	0	161	0	0	0	unknown
3	1	3	37	50489	3719	0.4106576815247535	0	1.0	655.5174580134917	0.0			0	1.0	1	0	1.0	0	162	0	0	0	unknown
3	1	3	38	59157	5440	0.4107039750088006	0	1.0	704.3948869977612	0.0			0	1.0	1	0	1.0	0	163	0	0	0	unknown
3	1	3	39	34287	9470	0.4107502696570008	0	1.0	907.3007120023248	0.0			0	1.0	1	0	1.0	0	164	0	0	0	unknown
3	1	3	40	10253	1330	0.4107965616276487	0	1.0	614.0849320072448	0.0			0	1.0	1	0	1.0	0	165	0	0	0	unknown
3	1	3	41	11094	8935	0.4108428531326353	0	1.0	750.599865001277	0.0			0	1.0	1	0	1.0	0	166	0	0	0	unknown
3	1	3	42	7660	80	0.410889156977646	0	1.0	715.9671730041737	0.0			0	1.0	1	0	1.0	0	167	1	0	1	new
3	1	3	43	68613	2159	0.4109354392858222	0	1.0	654.3009559973143	0.0			0	1.0	1	0	1.0	0	168	0	0	0	unknown
3	1	3	44	65145	1866	0.4109817419666796	0	1.0	709.1224100004183	0.0			0	1.0	1	0	1.0	0	169	0	0	0	unknown
3	1	3	45	38105	5965	0.4110743239289149	0	1.0	1005.7409919972996	0.0			0	1.0	1	0	1.0	0	170	0	0	0	unknown
3	1	3	46	65440	7512	0.4111206218367442	0	1.0	1546.1937130021397	0.0			0	1.0	1	0	1.0	0	171	0	0	0	unknown
3	1	3	47	4844	4025	0.4111669093836098	0	1.0	756.3680489984109	0.0			0	1.0	1	0	1.0	0	172	0	0	0	unknown
3	1	3	48	4844	4025	0.4112132112495601	1	1.0	854.7118179994867	0.0	0.0		1	1.0	0	1	2.0	0	173	0	0	0	unknown
3	1	3	49	30374	403	0.4112595068290829	0	1.0	839.016311991145	0.0			0	1.0	1	0	1.0	0	174	1	0	1	new
3	1	3	50	46620	1665	0.4113057921640574	0	1.0	884.4694530125707	0.0			0	1.0	1	0	1.0	0	175	0	0	0	unknown
3	1	3	51	71019	9667	0.4113520950777456	0	1.0	872.2952239913867	0.0			0	1.0	1	0	1.0	0	176	0	0	0	unknown
3	1	3	52	25960	340	0.4113983834395185	0	1.0	703.026745992247	0.0			0	1.0	1	0	1.0	0	177	1	0	1	new
3	1	3	53	12150	6692	0.411444682511501	0	1.0	702.5327809969896	0.0			0	1.0	1	0	1.0	0	178	0	0	0	unknown
3	1	3	54	53633	3824	0.4115372637752443	0	1.0	702.9153019975638	0.0			0	1.0	1	0	1.0	0	179	0	0	0	unknown
3	1	3	55	37643	1160	0.4115835650591179	0	1.0	731.3446030020714	0.0			0	1.0	1	0	1.0	0	180	0	0	0	unknown
3	1	3	56	72130	7046	0.4116297889268025	1	1.0	854.8618979984894	0.0	121.0		1	1.0	0	1	2.0	0	181	0	0	0	unknown
3	1	3	57	61646	7852	0.4116760572651401	0	1.0	1032.9605560109485	0.0			0	1.0	1	0	1.0	0	182	0	0	0	unknown
3	1	3	58	45064	5291	0.411722348886542	0	1.0	813.0882730038138	0.0			0	1.0	1	0	1.0	0	183	0	0	0	unknown
3	1	3	59	40219	3595	0.4117686382960528	0	1.0	911.2462940101976	0.0			0	1.0	1	0	1.0	0	184	0	0	0	unknown
3	1	3	60	35760	2325	0.411814943421632	0	1.0	809.8197239887667	0.0			0	1.0	1	0	1.0	0	185	0	0	0	unknown
3	1	3	61	47309	4285	0.4118612265447154	0	1.0	678.3976880105911	0.0			0	1.0	1	0	1.0	0	186	0	0	0	unknown
3	1	3	62	54621	8561	0.4119075238704681	0	1.0	984.6061809948878	0.0			0	1.0	1	0	1.0	0	187	0	0	0	unknown
3	1	3	63	27752	3014	0.4119538157247006	1	1.0	956.0693899984471	0.0	95.0		1	1.0	0	1	2.0	0	188	0	0	0	unknown
3	1	4	1	30374	403	0.4134985844139009	1	0.0	904.5628970052348	0.0	14.0		1	0.0	1	0	1.0	0	189	1	0	2	easy
3	1	4	2	44981	612	0.4135448830202221	1	0.0	974.0249729948118	0.0	153.0		1	0.0	1	0	1.0	0	190	1	0	2	easy
3	1	4	3	12769	4687	0.4135911794146522	0	1.0	815.5754909967072	0.0			0	1.0	1	0	1.0	0	191	0	0	0	unknown
3	1	4	4	35718	9425	0.4136374733643606	1	1.0	880.8704160037449	0.0	170.0		1	1.0	0	1	2.0	0	192	0	0	0	unknown
3	1	4	5	47128	7750	0.4136837645201012	0	1.0	702.4560170102632	0.0			0	1.0	1	0	1.0	0	193	0	0	0	unknown
3	1	4	6	32274	3194	0.4137300667352974	0	1.0	839.565660993685	0.0			0	1.0	1	0	1.0	0	194	0	0	0	unknown
3	1	4	7	53677	2628	0.4137763485778123	0	1.0	902.6610989967594	0.0			0	1.0	1	0	1.0	0	195	0	0	0	unknown
3	1	4	8	16174	9722	0.4138226538198068	0	1.0	756.3589689962099	0.0			0	1.0	1	0	1.0	0	196	0	0	0	unknown
3	1	4	9	54621	8561	0.4138689339160919	1	1.0	838.5801789991093	0.0	9.0		1	1.0	0	1	2.0	0	197	0	0	0	unknown
3	1	4	10	43984	2670	0.4139152358984574	0	1.0	702.4715000006836	0.0			0	1.0	1	0	1.0	0	198	0	0	0	unknown
3	1	4	11	27545	5109	0.4140078267082571	0	1.0	751.1104470031568	0.0			0	1.0	1	0	1.0	0	199	0	0	0	unknown
3	1	4	12	20103	3457	0.4140541087836027	0	1.0	706.2747130112257	0.0			0	1.0	1	0	1.0	0	200	0	0	0	unknown
3	1	4	13	29182	9972	0.4141004130942746	0	1.0	824.3959130049917	0.0			0	1.0	1	0	1.0	0	201	0	0	0	unknown
3	1	4	14	65415	899	0.4141466335859149	0	1.0	641.2914079992332	0.0			0	1.0	1	0	1.0	0	202	1	0	1	new
3	1	4	15	53844	5741	0.4141928980825468	0	1.0	851.7992720007896	0.0			0	1.0	1	0	1.0	0	203	0	0	0	unknown
3	1	4	16	44557	3831	0.4142391900531947	0	1.0	1113.089355989359	0.0			0	1.0	1	0	1.0	0	204	0	0	0	unknown
3	1	4	17	3751	3799	0.4142854913370683	0	1.0	1102.266485002474	0.0			0	1.0	1	0	1.0	0	205	0	0	0	unknown
3	1	4	18	5958	2517	0.4143317838897928	0	1.0	863.8559969986089	0.0			0	1.0	1	0	1.0	0	206	0	0	0	unknown
3	1	4	19	59044	6504	0.4143780742306262	0	1.0	813.1281160021899	0.0			0	1.0	1	0	1.0	0	207	0	0	0	unknown
3	1	4	20	45917	3548	0.4144706608494743	0	1.0	615.8559100003913	0.0			0	1.0	1	0	1.0	0	208	0	0	0	unknown
3	1	4	21	44013	6399	0.414516957825981	0	1.0	830.1497859938535	0.0			0	1.0	1	0	1.0	0	209	0	0	0	unknown
3	1	4	22	9065	3095	0.414563255617395	0	1.0	587.5715179863619	0.0			0	1.0	1	0	1.0	0	210	0	0	0	unknown
3	1	4	23	38103	9021	0.4146095500327646	0	1.0	705.6989330012584	0.0			0	1.0	1	0	1.0	0	211	0	0	0	unknown
3	1	4	24	10598	9121	0.4146558447973802	0	1.0	779.3854719930094	0.0			0	1.0	1	0	1.0	0	212	0	0	0	unknown
3	1	4	25	61646	7852	0.4147021340904757	1	1.0	1328.3630379883107	0.0	30.0		1	1.0	0	1	2.0	0	213	0	0	0	unknown
3	1	4	26	60119	1108	0.4147484321147203	1	1.0	891.7366870009573	0.0	109.0		1	1.0	0	1	2.0	0	214	0	0	0	unknown
3	1	4	27	16232	8441	0.4147947203600779	0	1.0	779.2841110058362	0.0			0	1.0	1	0	1.0	0	215	0	0	0	unknown
3	1	4	28	40762	9826	0.4148410223424434	0	1.0	1222.519752001972	0.0			0	1.0	1	0	1.0	0	216	0	0	0	unknown
3	1	4	29	18128	7559	0.4148873195517808	0	1.0	1678.612980991602	0.0			0	1.0	1	0	1.0	0	217	0	0	0	unknown
3	1	4	30	22191	2880	0.4149799016304314	0	1.0	706.1154179973528	0.0			0	1.0	1	0	1.0	0	218	0	0	0	unknown
3	1	4	31	42733	9949	0.4150261991890147	0	1.0	789.8824660078388	0.0			0	1.0	1	0	1.0	0	219	0	0	0	unknown
3	1	4	32	37985	7441	0.415072489879094	1	1.0	1034.9539349990664	0.0	196.0		1	1.0	0	1	2.0	0	220	0	0	0	unknown
3	1	4	33	15003	4751	0.4151187861571088	0	1.0	818.7419330060948	0.0			0	1.0	1	0	1.0	0	221	0	0	0	unknown
3	1	4	34	63933	5679	0.4151650788262486	0	0.0	1789.5472570089623	0.0			0	0.0	0	1	2.0	0	222	0	0	0	unknown
3	1	4	35	53306	9865	0.4152113747550174	1	1.0	1269.986875995528	0.0	133.0		1	1.0	0	1	2.0	0	223	0	0	0	unknown
3	1	4	36	53712	1645	0.4152576671913266	0	1.0	808.4516350063494	0.0			0	1.0	1	0	1.0	0	224	0	0	0	unknown
3	1	4	37	42166	1266	0.4153039533412083	1	1.0	1005.9934769960818	0.0	92.0		1	1.0	0	1	2.0	0	225	0	0	0	unknown
3	1	4	38	70902	1549	0.415350257884711	0	1.0	830.2785419946302	0.0			0	1.0	1	0	1.0	0	226	0	0	0	unknown
3	1	4	39	32890	4229	0.4153965531149879	1	1.0	1040.870888988138	0.0	98.0		1	1.0	0	1	2.0	0	227	0	0	0	unknown
3	1	4	40	51552	9562	0.415442747878842	0	1.0	912.7898220031057	0.0			0	1.0	1	0	1.0	0	228	0	0	0	unknown
3	1	4	41	6419	6187	0.4155353287933394	0	1.0	881.3862289971438	0.0			0	1.0	1	0	1.0	0	229	0	0	0	unknown
3	1	4	42	23639	8748	0.415581623208709	1	1.0	879.1260290017817	0.0	187.0		1	1.0	0	1	2.0	0	230	0	0	0	unknown
3	1	4	43	61223	8374	0.4156279227463528	0	1.0	1682.9559370089555	0.0			0	1.0	1	0	1.0	0	231	0	0	0	unknown
3	1	4	44	42172	559	0.4156742189079523	0	1.0	836.7053499969187	0.0			0	1.0	1	0	1.0	0	232	1	0	1	new
3	1	4	45	5603	53	0.4157205140218138	0	1.0	853.923438990023	0.0			0	1.0	1	0	1.0	0	233	1	0	1	new
3	1	4	46	13240	8043	0.4157668001716956	0	1.0	810.9159820014611	0.0			0	1.0	1	0	1.0	0	234	0	0	0	unknown
3	1	4	47	58252	8972	0.4158131055301055	0	1.0	1001.518463002867	0.0			0	1.0	1	0	1.0	0	235	0	0	0	unknown
3	1	4	48	70875	5860	0.4158593959873542	0	1.0	737.5984280079138	0.0			0	1.0	1	0	1.0	0	236	0	0	0	unknown
3	1	4	49	19809	3756	0.415905685047619	0	1.0	626.0197360097663	0.0			0	1.0	1	0	1.0	0	237	0	0	0	unknown
3	1	4	50	59308	4734	0.4159519863314926	0	1.0	717.6274420053232	0.0			0	1.0	1	0	1.0	0	238	0	0	0	unknown
3	1	4	51	39649	8985	0.4159982786513864	0	1.0	572.1857969911072	0.0			0	1.0	1	0	1.0	0	239	0	0	0	unknown
3	1	4	52	47442	5862	0.4160445645684376	0	1.0	804.4030829914844	0.0			0	1.0	1	0	1.0	0	240	0	0	0	unknown
3	1	4	53	11978	1681	0.4161371553782373	0	1.0	649.4764770031907	0.0			0	1.0	1	0	1.0	0	241	0	0	0	unknown
3	1	4	54	72172	8054	0.4161834566621109	1	0.0	738.013113004854	0.0	100.0		1	0.0	1	0	1.0	0	242	0	0	0	unknown
3	1	4	55	36174	1983	0.4162297437433153	0	1.0	745.5141550017288	0.0			0	1.0	1	0	1.0	0	243	0	0	0	unknown
3	1	4	56	63075	7973	0.41627604723908	0	0.0	1181.2169089971576	0.0			0	0.0	0	1	2.0	0	244	0	0	0	unknown
3	1	4	57	41220	2469	0.4163223291980102	0	1.0	786.2855810089968	0.0			0	1.0	1	0	1.0	0	245	0	0	0	unknown
3	1	4	58	21602	265	0.4163686296669766	0	1.0	1179.2698700010078	0.0			0	1.0	1	0	1.0	0	246	1	0	1	new
3	1	4	59	62303	860	0.4164149259449914	0	1.0	1010.2978100039765	0.0			0	1.0	1	0	1.0	0	247	1	0	1	new
3	1	4	60	16243	3951	0.4164612198946997	0	1.0	841.271746001439	0.0			0	1.0	1	0	1.0	0	248	0	0	0	unknown
3	1	4	61	34917	3444	0.4165075101191177	1	0.0	616.3212259998545	0.0	167.0		1	0.0	1	0	1.0	0	249	0	0	0	unknown
3	1	4	62	5302	45	0.4165538012748584	0	1.0	682.0167050027521	0.0			0	1.0	2	0	1.0	0	250	1	0	1	new
3	1	5	1	15493	187	0.4192146005807444	0	1.0	1067.3600119916955	0.0			0	1.0	1	0	1.0	0	251	1	0	1	new
3	1	5	2	37686	6960	0.4192608846351504	0	1.0	669.2396709986497	0.0			0	1.0	1	0	1.0	0	252	0	0	0	unknown
3	1	5	3	12158	9857	0.4193071889458224	0	1.0	775.5862650083145	0.0			0	1.0	1	0	1.0	0	253	0	0	0	unknown
3	1	5	4	70420	9133	0.4193534814985468	0	1.0	777.2677789907902	0.0			0	1.0	1	0	1.0	0	254	0	0	0	unknown
3	1	5	5	25359	8620	0.4193997762631624	0	1.0	729.5691119943511	0.0			0	1.0	1	0	1.0	0	255	0	0	0	unknown
3	1	5	6	25288	323	0.4194460635771974	0	1.0	957.6496770023368	0.0			0	1.0	1	0	1.0	0	256	1	0	1	new
3	1	5	7	15883	7974	0.4194923592731356	0	1.0	852.2819240024546	0.0			0	1.0	1	0	1.0	0	257	0	0	0	unknown
3	1	5	8	49635	3060	0.4195386585779488	0	1.0	1089.7547799977472	0.0			0	1.0	1	0	1.0	0	258	0	0	0	unknown
3	1	5	9	23333	3271	0.4195849533425644	0	1.0	1130.8224810054523	0.0			0	1.0	1	0	1.0	0	259	0	0	0	unknown
3	1	5	10	62037	5081	0.419631251017563	0	1.0	960.1979450089858	0.0			0	1.0	1	0	1.0	0	260	0	0	0	unknown
3	1	5	11	38663	4741	0.41972383542452	0	1.0	1233.248487013043	0.0			0	1.0	1	0	1.0	0	261	0	0	0	unknown
3	1	5	12	47316	1085	0.4197701298398897	0	1.0	864.8144039907492	0.0			0	1.0	1	0	1.0	0	262	0	0	0	unknown
3	1	5	13	32549	6570	0.4198164187837392	0	1.0	1137.9626249981811	0.0			0	1.0	1	0	1.0	0	263	0	0	0	unknown
3	1	5	14	59308	4734	0.4198627183213829	1	1.0	1181.3370529998792	0.0	25.0		1	1.0	0	1	2.0	0	264	0	0	0	unknown
3	1	5	15	21602	265	0.4199090125039219	1	1.0	1402.2843950078823	0.0	18.0		1	1.0	0	1	2.0	0	265	1	0	2	easy
3	1	5	16	32480	2980	0.419955305987969	1	1.0	1002.2588759893551	0.0	116.0	119.0	1	1.0	0	1	2.0	0	266	0	0	0	unknown
3	1	5	17	3562	6150	0.4200015976093709	0	1.0	902.0529760018688	0.0			0	1.0	1	0	1.0	0	267	0	0	0	unknown
3	1	5	18	6559	66	0.4200478879502043	0	1.0	802.5404899963178	0.0			0	1.0	1	0	1.0	0	268	1	0	1	new
3	1	5	19	39000	5550	0.4200941929593682	0	1.0	1016.5944159962236	0.0			0	1.0	1	0	1.0	0	269	0	0	0	unknown
3	1	5	20	54386	6106	0.4201404833002015	0	1.0	892.3086379945744	0.0			0	1.0	1	0	1.0	0	270	0	0	0	unknown
3	1	5	21	63075	7973	0.4201867701485753	1	1.0	891.9671760086203	0.0	26.0		1	1.0	0	1	2.0	0	271	0	0	0	unknown
3	1	5	22	55329	4401	0.4202330720145255	0	1.0	802.7341849956429	0.0			0	1.0	1	0	1.0	0	272	0	0	0	unknown
3	1	5	23	49904	2727	0.4203256617765873	0	1.0	931.6164769988973	0.0			0	1.0	1	0	1.0	0	273	0	0	0	unknown
3	1	5	24	64566	6036	0.4203719540964812	0	1.0	628.1148959969869	0.0			0	1.0	1	0	1.0	0	274	0	0	0	unknown
3	1	5	25	48773	7741	0.4204182459507137	0	1.0	833.5220430017216	0.0			0	1.0	1	0	1.0	0	275	0	0	0	unknown
3	1	5	26	68333	2387	0.4204644457204267	0	1.0	868.8503930025036	0.0			0	1.0	1	0	1.0	0	276	0	0	0	unknown
3	1	5	27	13860	7130	0.4205107393208891	0	0.0	2068.6342310073087	0.0			0	0.0	0	1	2.0	0	277	0	0	0	unknown
3	1	5	28	39645	6647	0.4205570351332426	0	1.0	707.4083779880311	0.0			0	1.0	1	0	1.0	0	278	0	0	0	unknown
3	1	5	29	38481	5925	0.4206033289665356	1	1.0	1472.338530991692	0.0	118.0		1	1.0	0	1	2.0	0	279	0	0	0	unknown
3	1	5	30	22608	3686	0.4206496166298165	0	1.0	803.3220060024178	0.0			0	1.0	1	0	1.0	0	280	0	0	0	unknown
3	1	5	31	70336	970	0.4206959151197224	1	0.0	1049.334812996676	0.0	153.0		1	0.0	1	0	1.0	0	281	1	0	2	easy
3	1	5	32	16724	201	0.4207422026665881	0	1.0	909.3491599924163	0.0			0	1.0	1	0	1.0	0	282	1	0	1	new
3	1	5	33	12769	4687	0.4207884968491271	1	0.0	871.4496180036804	0.0	91.0		1	0.0	1	0	1.0	0	283	0	0	0	unknown
3	1	5	34	68333	2387	0.4208810841664671	1	1.0	1185.2397469920106	0.0	7.0		1	1.0	0	1	2.0	0	284	0	0	0	unknown
3	1	5	35	9054	6349	0.4209273855667561	0	1.0	831.2703640112886	0.0			0	1.0	1	0	1.0	0	285	0	0	0	unknown
3	1	5	36	20103	3457	0.4209736738121137	1	1.0	1287.4844749894692	0.0	85.0		1	1.0	0	1	2.0	0	286	0	0	0	unknown
3	1	5	37	69113	5237	0.4210199697408825	0	1.0	1315.606240008492	0.0			0	1.0	1	0	1.0	0	287	0	0	0	unknown
3	1	5	38	69113	5237	0.4210662677651271	1	1.0	819.5714670000598	0.0	0.0		1	1.0	0	1	2.0	0	288	0	0	0	unknown
3	1	5	39	70574	5169	0.421112565905787	1	1.0	785.2993619890185	0.0	180.0	222.0	1	1.0	0	1	2.0	0	289	0	0	0	unknown
3	1	5	40	1574	2284	0.4211588521720841	0	1.0	911.1179289902792	0.0			0	1.0	1	0	1.0	0	290	0	0	0	unknown
3	1	5	41	67075	4210	0.4212051514768972	0	1.0	1146.189149993006	0.0			0	1.0	1	0	1.0	0	291	0	0	0	unknown
3	1	5	42	7650	3597	0.4212514461250975	0	1.0	1169.1037169948684	0.0			0	1.0	1	0	1.0	0	292	0	0	0	unknown
3	1	5	43	46164	2768	0.4213440336752682	0	1.0	1555.4752940079195	0.0			0	1.0	1	0	1.0	0	293	0	0	0	unknown
3	1	5	44	26467	5714	0.4213903270429	0	1.0	1018.8255129905884	0.0			0	1.0	1	0	1.0	0	294	0	0	0	unknown
3	1	5	45	61646	7852	0.4214366264641284	1	1.0	911.5189290023408	0.0	81.0	112.0	1	1.0	0	1	2.0	0	295	0	0	0	unknown
3	1	5	46	51457	9788	0.4214829093543812	0	1.0	784.9526419886387	0.0			0	1.0	1	0	1.0	0	296	0	0	0	unknown
3	1	5	47	11357	9094	0.4215292113367468	0	1.0	1017.2638590011048	0.0			0	1.0	1	0	1.0	0	297	0	0	0	unknown
3	1	5	48	26565	2607	0.4215754988836124	0	1.0	1306.153465004172	0.0			0	1.0	1	0	1.0	0	298	0	0	0	unknown
3	1	5	49	21595	9272	0.4216218022629618	0	1.0	838.1425070110707	0.0			0	1.0	1	0	1.0	0	299	0	0	0	unknown
3	1	5	50	15929	5192	0.4216680935351178	0	1.0	802.0263060025171	0.0			0	1.0	1	0	1.0	0	300	0	0	0	unknown
3	1	5	51	33987	7185	0.4217143912101164	0	1.0	891.3612350006589	0.0			0	1.0	1	0	1.0	0	301	0	0	0	unknown
3	1	5	52	33312	6581	0.4217605759622529	0	1.0	1002.9871610022382	0.0			0	1.0	1	0	1.0	0	302	0	0	0	unknown
3	1	5	53	57518	1492	0.4218068784102797	0	1.0	1084.1537429951131	0.0			0	1.0	1	0	1.0	0	303	0	0	0	unknown
3	1	5	54	12151	2196	0.4218531700316816	0	1.0	803.8421320088673	0.0			0	1.0	1	0	1.0	0	304	0	0	0	unknown
3	1	5	55	33135	7998	0.421945757465437	0	1.0	975.1417739898895	0.0			0	1.0	1	0	1.0	0	305	0	0	0	unknown
3	1	5	56	40576	531	0.4219920559553429	0	1.0	775.2718800038565	0.0			0	1.0	1	0	1.0	0	306	1	0	1	new
3	1	5	57	40177	6520	0.4220383515348657	0	1.0	870.1262020040302	0.0			0	1.0	1	0	1.0	0	307	0	0	0	unknown
3	1	5	58	17975	3898	0.4220846412936225	0	1.0	935.5987329909112	0.0			0	1.0	1	0	1.0	0	308	0	0	0	unknown
3	1	5	59	47303	9743	0.4221309307031333	0	1.0	622.8797950025182	0.0			0	1.0	1	0	1.0	0	309	0	0	0	unknown
3	1	5	60	28595	2430	0.4221772331511601	0	1.0	687.4677399900975	0.0			0	1.0	1	0	1.0	0	310	0	0	0	unknown
3	1	5	61	18079	3694	0.4222235261695459	1	1.0	2015.7742279989177	0.0	214.0		1	1.0	0	1	2.0	0	311	0	0	0	unknown
3	1	5	62	45917	3548	0.4222698144149035	1	1.0	1076.6880119917914	0.0	103.0		1	1.0	0	1	2.0	0	312	0	0	0	unknown
3	1	5	63	31428	1939	0.4223161074332892	0	1.0	747.1474280027905	0.0			0	1.0	1	0	1.0	0	313	0	0	0	unknown
3	1	6	1	5412	1129	0.4240169379627332	0	1.0	980.9886709990678	0.0			0	1.0	1	0	1.0	0	314	0	0	0	unknown
3	1	6	2	69423	3996	0.4240632418077439	0	1.0	602.4370739905862	0.0			0	1.0	1	0	1.0	0	315	0	0	0	unknown
3	1	6	3	27061	5160	0.4241095269098877	0	1.0	677.4225379922427	0.0			0	1.0	1	0	1.0	0	316	0	0	0	unknown
3	1	6	4	47448	2539	0.4241558209760114	0	0.0	2920.1659499958623	1.0			0	0.0	1	1	2.0	0	317	0	0	0	unknown
3	1	6	5	68746	5155	0.4242021129466593	0	1.0	902.3444920021576	0.0			0	1.0	1	0	1.0	0	318	0	0	0	unknown
3	1	6	6	69906	3647	0.42424830829259	0	1.0	688.0134350067236	0.0			0	1.0	1	0	1.0	0	319	0	0	0	unknown
3	1	6	7	45443	7233	0.4242946029407903	0	1.0	687.2096239967505	0.0			0	1.0	1	0	1.0	0	320	0	0	0	unknown
3	1	6	8	41307	5772	0.4243408987531438	1	0.0	831.1578300053952	0.0	234.0		1	0.0	1	0	1.0	0	321	0	0	0	unknown
3	1	6	9	47447	5761	0.4243871892103925	0	1.0	726.6245960054221	0.0			0	1.0	1	0	1.0	0	322	0	0	0	unknown
3	1	6	10	39779	9964	0.4244334860704839	0	1.0	757.134990009945	0.0			0	1.0	1	0	1.0	0	323	0	0	0	unknown
3	1	6	11	71486	3903	0.4244797780411317	0	1.0	1767.7416750084376	0.0			0	1.0	1	0	1.0	0	324	0	0	0	unknown
3	1	6	12	25524	9657	0.4245260709431022	0	1.0	823.3738380076829	0.0			0	1.0	1	0	1.0	0	325	0	0	0	unknown
3	1	6	13	44112	1808	0.424618657445535	0	1.0	672.8989650000585	0.0			0	1.0	1	0	1.0	0	326	0	0	0	unknown
3	1	6	14	72768	3036	0.4246649496490135	0	1.0	640.2907480078284	0.0			0	1.0	1	0	1.0	0	327	0	0	0	unknown
3	1	6	15	54887	9484	0.4247112529119476	0	1.0	833.1564770051045	0.0			0	1.0	1	0	1.0	0	328	0	0	0	unknown
3	1	6	16	4844	4025	0.4247575449990108	1	1.0	846.4605780027341	0.0	155.0	156.0	1	1.0	0	1	2.0	0	329	0	0	0	unknown
3	1	6	17	34166	6068	0.4248038412770256	0	1.0	1024.11871800723	0.0			0	1.0	1	0	1.0	0	330	0	0	0	unknown
3	1	6	18	59924	5418	0.4248501356923952	0	1.0	1001.6486620006616	0.0			0	1.0	1	0	1.0	0	331	0	0	0	unknown
3	1	6	19	2139	4005	0.4248964285943657	0	1.0	745.2339449955616	0.0			0	1.0	1	0	1.0	0	332	0	0	0	unknown
3	1	6	20	21259	9960	0.4249427233589813	0	1.0	772.2788449900689	0.0			0	1.0	1	0	1.0	0	333	0	0	0	unknown
3	1	6	21	53670	6726	0.4249890143983066	1	1.0	1024.849223002093	0.0	193.0		1	1.0	0	1	2.0	0	334	0	0	0	unknown
3	1	6	22	50520	2504	0.4250353152165189	0	0.0	1008.9385070023126	0.0			0	0.0	0	1	2.0	0	335	0	0	0	unknown
3	1	6	23	63104	2735	0.4251279038144275	0	1.0	1072.1243349980796	0.0			0	1.0	1	0	1.0	0	336	0	0	0	unknown
3	1	6	24	585	8174	0.4251741940388455	0	1.0	779.3609259970253	0.0			0	1.0	1	0	1.0	0	337	0	0	0	unknown
3	1	6	25	50162	7260	0.4252204805379733	0	1.0	845.181352997315	0.0			0	1.0	1	0	1.0	0	338	0	0	0	unknown
3	1	6	26	39520	5558	0.4252667827531695	0	1.0	955.229874001816	0.0			0	1.0	1	0	1.0	0	339	0	0	0	unknown
3	1	6	27	53123	7780	0.4253130771685391	0	1.0	1313.67201100511	0.0			0	1.0	1	0	1.0	0	340	0	0	0	unknown
3	1	6	28	29754	1014	0.4253593616886064	0	1.0	1283.4026420023292	0.0			0	1.0	2	0	1.0	0	341	0	0	0	unknown
3	1	6	29	67703	3638	0.4254056625068187	0	1.0	1172.6117200014414	0.0			0	1.0	1	0	1.0	0	342	0	0	0	unknown
3	1	6	30	51314	6843	0.4254519614623859	1	1.0	1019.4034689920954	0.0	240.0		1	1.0	0	1	2.0	0	343	0	0	0	unknown
3	1	6	31	22928	9313	0.4254981558769941	0	1.0	1702.8047779895132	0.0			0	1.0	1	0	1.0	0	344	0	0	0	unknown
3	1	6	32	26893	1702	0.4255444509908556	0	1.0	1020.6131119921336	0.0			0	1.0	1	0	1.0	0	345	0	0	0	unknown
3	1	6	33	45596	616	0.4255907475017011	0	1.0	872.7328800014221	0.0			0	1.0	1	0	1.0	0	346	1	1	1	new
3	1	6	34	5404	3640	0.4256370388902723	0	1.0	1002.140306009096	0.0			0	1.0	1	0	1.0	0	347	0	0	0	unknown
3	1	6	35	46748	8318	0.4257296270225197	0	1.0	1287.7997100003995	0.0			0	1.0	1	0	1.0	0	348	0	0	0	unknown
3	1	6	36	71078	9017	0.4257759214378893	0	1.0	854.3182510038606	0.0			0	1.0	1	0	1.0	0	349	0	0	0	unknown
3	1	6	37	48513	9347	0.4258222181815654	0	0.0	1377.243938986794	0.0			0	0.0	0	1	2.0	0	350	0	0	0	unknown
3	1	6	38	2153	5238	0.4258685088716447	0	1.0	879.9253780016442	0.0			0	1.0	1	0	1.0	0	351	0	0	0	unknown
3	1	6	39	56411	6246	0.4259148053824901	0	1.0	1006.9028519938	0.0			0	1.0	1	0	1.0	0	352	0	0	0	unknown
3	1	6	40	32274	3194	0.425961100612767	1	1.0	1178.8904360000743	0.0	158.0		1	1.0	0	1	2.0	0	353	0	0	0	unknown
3	1	6	41	53053	727	0.4260073845507577	1	1.0	883.714241994312	0.0	297.0		1	1.0	0	1	2.0	0	354	1	1	2	easy
3	1	6	42	992	6311	0.4260536867659538	0	1.0	1117.5277490110602	0.0			0	1.0	1	0	1.0	0	355	0	0	0	unknown
3	1	6	43	11094	8935	0.4260999761754646	1	0.0	1072.881763000623	0.0	189.0		1	0.0	1	0	1.0	0	356	0	0	0	unknown
3	1	6	44	9918	116	0.4261925674509257	0	1.0	1647.5701390008908	0.0			0	1.0	1	0	1.0	0	357	1	0	1	new
3	1	6	45	61431	2297	0.4262388582574203	0	1.0	1443.7034399888944	0.0			0	1.0	1	0	1.0	0	358	0	0	0	unknown
3	1	6	46	69439	3293	0.426285151625052	0	1.0	1281.5748889988752	0.0			0	1.0	1	0	1.0	0	359	0	0	0	unknown
3	1	6	47	26599	351	0.4263314537238329	0	1.0	821.08035699639	0.0			0	1.0	1	0	1.0	0	360	1	0	1	new
3	1	6	48	10317	2336	0.4263777452288195	0	1.0	767.1065290051047	0.0			0	1.0	1	0	1.0	0	361	0	0	0	unknown
3	1	6	49	21602	265	0.4264240445336326	1	1.0	917.466920989682	0.0	96.0	115.0	1	1.0	0	1	2.0	0	362	1	0	3	easy
3	1	6	50	42733	9949	0.4264703273074701	1	1.0	881.6843050008174	0.0	143.0		1	1.0	0	1	2.0	0	363	0	0	0	unknown
3	1	6	51	59924	5418	0.4265166280092671	1	1.0	909.2363069939892	0.0	32.0		1	1.0	0	1	2.0	0	364	0	0	0	unknown
3	1	6	52	13601	6017	0.4265629254514351	0	1.0	1082.3517809913028	0.0			0	1.0	1	0	1.0	0	365	0	0	0	unknown
3	1	6	53	64048	8280	0.4266555099748075	0	0.0	1026.3206169911427	0.0			0	0.0	0	1	2.0	0	366	0	0	0	unknown
3	1	6	54	56500	9965	0.4267017962411046	0	1.0	1076.3190049910916	0.0			0	1.0	1	0	1.0	0	367	0	0	0	unknown
3	1	6	55	22032	8516	0.4267480998532846	0	1.0	2060.6247060059104	0.0			0	1.0	1	0	1.0	0	368	0	0	0	unknown
3	1	6	56	72172	8054	0.4267943211598321	1	1.0	2977.6207389950287	1.0	126.0	227.0	1	1.0	1	1	2.0	0	369	0	0	0	unknown
3	1	6	57	42166	1266	0.4268406186020001	1	1.0	983.5267269954784	0.0	144.0	237.0	1	1.0	0	1	2.0	0	370	0	0	0	unknown
3	1	6	58	26174	8093	0.4268869258230552	0	1.0	756.4576440054224	0.0			0	1.0	1	0	1.0	0	371	0	0	0	unknown
3	1	6	59	62538	8498	0.4269332267576828	0	1.0	1165.6270590028723	0.0			0	1.0	1	0	1.0	0	372	0	0	0	unknown
3	1	6	60	41220	2469	0.426979511976242	1	0.0	667.3836419940926	0.0	127.0		1	0.0	1	0	1.0	0	373	0	0	0	unknown
3	1	6	61	60306	830	0.4270258193137124	0	1.0	843.9834840100957	0.0			0	1.0	1	0	1.0	0	374	1	0	1	new
3	1	6	62	38357	6274	0.4270721171051263	1	1.0	868.9467700023669	0.0	224.0		1	1.0	0	1	2.0	0	375	0	0	0	unknown
3	1	7	1	585	8174	0.4287185628199949	1	1.0	1108.7223310023546	0.0	38.0		1	1.0	0	1	2.0	0	376	0	0	0	unknown
3	1	7	2	2085	4615	0.4287648603785783	0	1.0	838.3684430009453	0.0			0	1.0	1	0	1.0	0	377	0	0	0	unknown
3	1	7	3	14194	2736	0.4288111593341454	0	1.0	863.9186869986589	0.0			0	1.0	1	0	1.0	0	378	0	0	0	unknown
3	1	7	4	52657	5200	0.4288574559614062	1	1.0	2214.133782006684	1.0	291.0		1	1.0	1	1	2.0	0	379	0	0	0	unknown
3	1	7	5	9493	2330	0.4289037514245137	0	1.0	660.1261549949413	0.0			0	1.0	1	0	1.0	0	380	0	0	0	unknown
3	1	7	6	19337	4470	0.4289500515442341	0	1.0	961.1377690016525	0.0			0	1.0	1	0	1.0	0	381	0	0	0	unknown
3	1	7	7	25730	4068	0.4289963328046724	1	1.0	1579.9190359975908	0.0	304.0		1	1.0	0	1	2.0	0	382	0	0	0	unknown
3	1	7	8	29481	5858	0.429042650386691	0	1.0	781.5451540081993	0.0			0	1.0	1	0	1.0	0	383	0	0	0	unknown
3	1	7	9	48560	1538	0.4290889254771173	1	0.0	719.6375250059646	0.0	300.0		1	0.0	1	0	1.0	0	384	0	0	0	unknown
3	1	7	10	26428	6560	0.4291815166361629	0	1.0	685.6565560010495	0.0			0	1.0	1	0	1.0	0	385	0	0	0	unknown
3	1	7	11	11087	8283	0.4292278283974155	0	1.0	772.8924520051805	0.0			0	1.0	1	0	1.0	0	386	0	0	0	unknown
3	1	7	12	27061	5160	0.4292741047684103	1	0.0	882.7141799993113	0.0	70.0		1	0.0	1	0	1.0	0	387	0	0	0	unknown
3	1	7	13	69439	3293	0.4293204238638281	1	1.0	840.6633539998438	0.0	28.0		1	1.0	0	1	2.0	0	388	0	0	0	unknown
3	1	7	14	38105	5965	0.429366688709706	1	1.0	934.4098790024874	0.0	218.0		1	1.0	0	1	2.0	0	389	0	0	0	unknown
3	1	7	15	43152	2408	0.4294130183989182	0	1.0	3139.57666400529	0.0			0	1.0	1	0	1.0	0	390	0	0	0	unknown
3	1	7	16	71019	9667	0.42945927742403	1	1.0	921.1695810081437	0.0	214.0		1	1.0	0	1	2.0	0	391	0	0	0	unknown
3	1	7	17	65145	1866	0.4295056159608066	1	1.0	1348.1975330068963	0.0	222.0		1	1.0	0	1	2.0	0	392	0	0	0	unknown
3	1	7	18	51245	3342	0.4295518702128902	0	1.0	1102.1238419925794	0.0			0	1.0	1	0	1.0	0	393	0	0	0	unknown
3	1	7	19	29754	1014	0.4295982130570337	1	1.0	1332.202520003193	0.0	52.0		1	1.0	0	1	2.0	0	394	0	0	0	unknown
3	1	7	20	15173	7951	0.4296908112009987	0	1.0	1658.7221160007175	0.0			0	1.0	1	0	1.0	0	395	0	0	0	unknown
3	1	7	21	55281	4784	0.4297370413551107	0	1.0	1091.0990970005514	0.0			0	1.0	1	0	1.0	0	396	0	0	0	unknown
3	1	7	22	58517	5660	0.4297834048047661	0	1.0	978.7133609934243	0.0			0	1.0	1	0	1.0	0	397	0	0	0	unknown
3	1	7	23	9534	8315	0.4298296254128217	0	1.0	1260.837289999472	0.0			0	1.0	1	0	1.0	0	398	0	0	0	unknown
3	1	7	24	30645	1098	0.4298759991070255	0	1.0	702.6978310022969	0.0			0	1.0	1	0	1.0	0	399	0	0	0	unknown
3	1	7	25	13910	1431	0.4299222219269722	0	0.0	1665.0820790091527	0.0			0	0.0	0	1	2.0	0	400	0	0	0	unknown
3	1	7	26	29481	5858	0.4299685946898534	1	1.0	834.7904090041993	0.0	17.0		1	1.0	0	1	2.0	0	401	0	0	0	unknown
3	1	7	27	14653	2848	0.4300148105248808	0	1.0	959.930377008277	0.0			0	1.0	1	0	1.0	0	402	0	0	0	unknown
3	1	7	28	4787	36	0.4300611173966899	0	1.0	879.7466789983445	0.0			0	1.0	1	0	1.0	0	403	1	0	1	new
3	1	7	29	54500	6866	0.4301073930691927	0	1.0	858.6604890006128	0.0			0	1.0	1	0	1.0	0	404	0	0	0	unknown
3	1	7	30	30645	1098	0.43015370471403	1	1.0	859.7344099980546	0.0	5.0		1	1.0	0	1	2.0	0	405	0	0	0	unknown
3	1	7	31	9534	8315	0.4301999877206981	1	1.0	1122.6714929944137	0.0	7.0		1	1.0	0	1	2.0	0	406	0	0	0	unknown
3	1	7	32	30732	5663	0.4302462885389104	0	1.0	789.0389270032755	0.0			0	1.0	1	0	1.0	0	407	0	0	0	unknown
3	1	7	33	49613	2218	0.4302925795782357	0	1.0	1489.488399005495	0.0			0	1.0	1	0	1.0	0	408	0	0	0	unknown
3	1	7	34	29481	5858	0.4303851630538702	1	1.0	1068.5099470138084	0.0	7.0	25.0	1	1.0	0	1	2.0	0	409	0	0	0	unknown
3	1	7	35	21595	9272	0.4304314721375703	1	1.0	1376.197524994495	0.0	110.0		1	1.0	0	1	2.0	0	410	0	0	0	unknown
3	1	7	36	3259	8216	0.4304777547949925	0	1.0	928.0458019929938	0.0			0	1.0	1	0	1.0	0	411	0	0	0	unknown
3	1	7	37	20274	7520	0.430524049908854	0	1.0	882.1688869938954	0.0			0	1.0	1	0	1.0	0	412	0	0	0	unknown
3	1	7	38	47787	5919	0.4305702443234622	0	1.0	1229.4857030065032	0.0			0	1.0	1	0	1.0	0	413	0	0	0	unknown
3	1	7	39	8912	2451	0.4306165353627875	0	1.0	834.9997150071432	0.0			0	1.0	1	0	1.0	0	414	0	0	0	unknown
3	1	7	40	21016	9575	0.4306628276826813	0	1.0	902.8270519920624	0.0			0	1.0	1	0	1.0	0	415	0	0	0	unknown
3	1	7	41	9493	2330	0.4307091174414381	1	1.0	1133.262510993518	0.0	35.0		1	1.0	0	1	2.0	0	416	0	0	0	unknown
3	1	7	42	40833	7310	0.4307554181432351	0	1.0	888.7682770000538	0.0			0	1.0	1	0	1.0	0	417	0	0	0	unknown
3	1	7	43	40409	8175	0.430801716283895	0	0.0	1738.119559988263	0.0			0	0.0	0	1	2.0	0	418	0	0	0	unknown
3	1	7	44	60038	2259	0.4308480008039623	1	1.0	1274.6970969892573	0.0	274.0		1	1.0	0	1	2.0	0	419	0	0	0	unknown
3	1	7	45	55329	4401	0.4308943008072674	1	1.0	1203.4229100099765	0.0	147.0		1	1.0	0	1	2.0	0	420	0	0	0	unknown
3	1	7	46	57359	3902	0.4309868835844099	1	0.0	804.5971840037964	0.0	396.0		1	0.0	1	0	1.0	0	421	0	0	0	unknown
3	1	7	47	72599	9335	0.4310331762535497	0	1.0	1052.0267069950933	0.0			0	1.0	1	0	1.0	0	422	0	0	0	unknown
3	1	7	48	53665	2760	0.431079477770254	0	1.0	814.4470840052237	0.0			0	1.0	1	0	1.0	0	423	0	0	0	unknown
3	1	7	49	13601	6017	0.4311257703229784	1	1.0	1122.143172993674	0.0	58.0		1	1.0	0	1	2.0	0	424	0	0	0	unknown
3	1	7	50	11821	8170	0.4311720716068521	0	1.0	782.3237770062404	0.0			0	1.0	1	0	1.0	0	425	0	0	0	unknown
3	1	7	51	60764	5262	0.4312183567089959	0	1.0	817.9646669887006	0.0			0	1.0	1	0	1.0	0	426	0	0	0	unknown
3	1	7	52	60764	5262	0.4312646568287163	1	1.0	853.7367969984189	0.0	0.0		1	1.0	0	1	2.0	0	427	0	0	0	unknown
3	1	7	53	10317	2336	0.4313109441427513	1	1.0	965.9985509933904	0.0	66.0		1	1.0	0	1	2.0	0	428	0	0	0	unknown
3	1	7	54	23173	3862	0.4313572432147338	0	1.0	673.9117929973872	0.0			0	1.0	1	0	1.0	0	429	0	0	0	unknown
3	1	7	55	8357	8482	0.4314498325111344	0	1.0	1102.390774001833	0.0			0	1.0	1	0	1.0	0	430	0	0	0	unknown
3	1	7	56	23283	9525	0.4314961257623508	0	1.0	790.651778996107	0.0			0	1.0	1	0	1.0	0	431	0	0	0	unknown
3	1	7	57	32481	3450	0.4315424202941358	0	1.0	743.2402159902267	0.0			0	1.0	1	0	1.0	0	432	0	0	0	unknown
3	1	7	58	12150	6692	0.4315887176198884	1	0.0	1102.3854670056608	0.0	254.0		1	0.0	1	0	1.0	0	433	0	0	0	unknown
3	1	7	59	19182	230	0.4316350016742944	0	1.0	1471.2000430008627	0.0			0	1.0	1	0	1.0	0	434	1	0	1	new
3	1	7	60	16861	5967	0.4316812966717407	0	1.0	709.7669710055925	0.0			0	1.0	1	0	1.0	0	435	0	0	0	unknown
3	1	7	61	196	7856	0.4317275965586304	0	1.0	751.8060870061162	0.0			0	1.0	1	0	1.0	0	436	0	0	0	unknown
3	1	7	62	23306	8586	0.431773793301545	0	1.0	777.576141001191	0.0			0	1.0	1	0	1.0	0	437	0	0	0	unknown
3	1	7	63	13860	7130	0.4318200891138985	1	0.0	1484.8859299963804	0.0	160.0		1	0.0	1	0	1.0	0	438	0	0	0	unknown
3	1	8	1	57894	8109	0.4338080090237781	0	1.0	1122.3714140069203	0.0			0	1.0	1	0	1.0	0	439	0	0	0	unknown
3	1	8	2	6559	66	0.433854300295934	1	0.0	986.6310369980058	0.0	171.0		1	0.0	1	0	1.0	0	440	1	0	2	easy
3	1	8	3	72081	992	0.4339006018126383	0	1.0	821.3536740076962	0.0			0	1.0	1	0	1.0	0	441	1	0	1	new
3	1	8	4	9729	2986	0.4339469034457579	0	1.0	657.211476995144	0.0			0	1.0	1	0	1.0	0	442	0	0	0	unknown
3	1	8	5	40218	1192	0.4339931899448856	0	1.0	702.5492569955532	0.0			0	1.0	1	0	1.0	0	443	0	0	0	unknown
3	1	8	6	57449	5568	0.4340394816827028	0	1.0	672.9596429941012	0.0			0	1.0	1	0	1.0	0	444	0	0	0	unknown
3	1	8	7	46341	2203	0.4340857734205201	0	1.0	980.6644710042746	0.0			0	1.0	1	0	1.0	0	445	0	0	0	unknown
3	1	8	8	33987	7185	0.4341320729581639	1	1.0	1026.6541499877349	0.0	144.0		1	1.0	0	1	2.0	0	446	0	0	0	unknown
3	1	8	9	32647	4001	0.4341783664422109	0	1.0	1186.7225940077333	0.0			0	1.0	1	0	1.0	0	447	0	0	0	unknown
3	1	8	10	47309	4285	0.4342709453776478	1	1.0	1131.5484060032759	0.0	261.0		1	1.0	0	1	2.0	0	448	0	0	0	unknown
3	1	8	11	36068	475	0.4343172459630295	0	1.0	773.503393997089	0.0			0	1.0	1	0	1.0	0	449	1	0	1	new
3	1	8	12	11023	7336	0.4343635346740484	1	0.0	1191.326496991678	0.0	323.0		1	0.0	1	0	1.0	0	450	0	0	0	unknown
3	1	8	13	32749	1800	0.434409839566797	0	1.0	760.116495002876	0.0			0	1.0	1	0	1.0	0	451	0	0	0	unknown
3	1	8	14	10598	9121	0.4344561315374448	1	0.0	989.088606002042	0.0	239.0		1	0.0	1	0	1.0	0	452	0	0	0	unknown
3	1	8	15	70521	7428	0.4345024228096008	0	1.0	692.4402690056013	0.0			0	1.0	1	0	1.0	0	453	0	0	0	unknown
3	1	8	16	30732	5663	0.4345487139653414	1	1.0	1268.8744600018251	0.0	46.0		1	1.0	0	1	2.0	0	454	0	0	0	unknown
3	1	8	17	35813	6579	0.4345950183924287	0	1.0	1123.1073099916102	0.0			0	1.0	1	0	1.0	0	455	0	0	0	unknown
3	1	8	18	47674	7917	0.434641296393238	0	1.0	747.3691889899783	0.0			0	1.0	1	0	1.0	0	456	0	0	0	unknown
3	1	8	19	19809	3756	0.4346876018680632	1	0.0	981.3860790018224	0.0	219.0		1	0.0	1	0	1.0	0	457	0	0	0	unknown
3	1	8	20	54386	6106	0.4347801972180604	1	0.0	1071.7142619978404	0.0	187.0		1	0.0	1	0	1.0	0	458	0	0	0	unknown
3	1	8	21	26607	2186	0.4348264810396358	0	1.0	807.9972459963756	0.0			0	1.0	1	0	1.0	0	459	0	0	0	unknown
3	1	8	22	2085	4615	0.4348727827891707	1	1.0	1113.1681349943392	0.0	82.0		1	1.0	0	1	2.0	0	460	0	0	0	unknown
3	1	8	23	14007	4306	0.4349190595094114	0	1.0	1110.684127008426	0.0			0	1.0	1	0	1.0	0	461	0	0	0	unknown
3	1	8	24	13375	5523	0.4349653681274503	0	1.0	739.3601380026665	0.0			0	1.0	1	0	1.0	0	462	0	0	0	unknown
3	1	8	25	15883	7974	0.4350116478744894	1	1.0	2002.6433390012244	0.0	205.0		1	1.0	0	1	2.0	0	463	0	0	0	unknown
3	1	8	26	57918	1196	0.4350579410092905	0	1.0	703.9248680084711	0.0			0	1.0	1	0	1.0	0	464	0	0	0	unknown
3	1	8	27	51199	9718	0.4351042371708899	1	1.0	1033.68847600359	0.0	317.0		1	1.0	0	1	2.0	0	465	0	0	0	unknown
3	1	8	28	18781	9244	0.4351505559170618	0	1.0	982.421130000148	0.0			0	1.0	1	0	1.0	0	466	0	0	0	unknown
3	1	8	29	44236	2604	0.4351968305418267	0	1.0	1871.842205000576	0.0			0	1.0	1	0	1.0	0	467	0	0	0	unknown
3	1	8	30	60087	4793	0.4352431206498295	0	1.0	762.6546399988001	0.0			0	1.0	1	0	1.0	0	468	0	0	0	unknown
3	1	8	31	71754	988	0.4353357033105567	0	0.0	1426.9220099959057	0.0			0	0.0	0	1	2.0	0	469	1	0	1	new
3	1	8	32	43285	5894	0.4353820062242448	0	1.0	862.0911170000909	0.0			0	1.0	1	0	1.0	0	470	0	0	0	unknown
3	1	8	33	61557	1732	0.4354282984277233	0	1.0	774.004375009099	0.0			0	1.0	1	0	1.0	0	471	0	0	0	unknown
3	1	8	34	42473	6066	0.4354745958698913	0	1.0	845.0189930008492	0.0			0	1.0	1	0	1.0	0	472	0	0	0	unknown
3	1	8	35	9419	7020	0.435520788305439	0	1.0	985.9345220029354	0.0			0	1.0	1	0	1.0	0	473	0	0	0	unknown
3	1	8	36	11946	9798	0.4355670806253328	0	1.0	716.375515999971	0.0			0	1.0	1	0	1.0	0	474	0	0	0	unknown
3	1	8	37	63909	1771	0.4356133773690089	0	1.0	704.3333259935025	0.0			0	1.0	1	0	1.0	0	475	0	0	0	unknown
3	1	8	38	4067	5382	0.4356596793513745	0	1.0	834.9775129900081	0.0			0	1.0	1	0	1.0	0	476	0	0	0	unknown
3	1	8	39	24352	8917	0.4357059696922078	0	1.0	1392.921890001162	0.0			0	1.0	1	0	1.0	0	477	0	0	0	unknown
3	1	8	40	992	6311	0.4357522677164524	1	1.0	1244.7610609960975	0.0	122.0		1	1.0	0	1	2.0	0	478	0	0	0	unknown
3	1	8	41	13691	5514	0.4357985610840842	0	1.0	806.8337709992192	0.0			0	1.0	1	0	1.0	0	479	0	0	0	unknown
3	1	8	42	42512	3924	0.4358911465387791	0	1.0	1086.1828429915477	0.0			0	1.0	1	0	1.0	0	480	0	0	0	unknown
3	1	8	43	44236	2604	0.435937438509427	1	1.0	1015.281321000657	0.0	13.0		1	1.0	0	1	2.0	0	481	0	0	0	unknown
3	1	8	44	40218	1192	0.4359837276861071	1	1.0	813.2503639935748	0.0	38.0		1	1.0	0	1	2.0	0	482	0	0	0	unknown
3	1	8	45	47754	2755	0.4360300282714888	0	1.0	855.9892609919187	0.0			0	1.0	1	0	1.0	0	483	0	0	0	unknown
3	1	8	46	14849	9761	0.4360763198928907	0	1.0	1021.46154899674	0.0			0	1.0	1	0	1.0	0	484	0	0	0	unknown
3	1	8	47	44495	1968	0.4361226159380748	0	1.0	1052.5510369916447	0.0			0	1.0	1	0	1.0	0	485	0	0	0	unknown
3	1	8	48	18128	7559	0.4361689120996743	1	1.0	1380.6842240010155	0.0	268.0		1	1.0	0	1	2.0	0	486	0	0	0	unknown
3	1	8	49	57717	1551	0.4362152023240923	0	1.0	739.6535229927393	0.0			0	1.0	1	0	1.0	0	487	0	0	0	unknown
3	1	8	50	66945	6666	0.4362614937126636	1	1.0	1281.4331160043366	0.0	336.0		1	1.0	0	1	2.0	0	488	0	0	0	unknown
3	1	8	51	11821	8170	0.4363077931338921	1	1.0	1068.5581729921976	0.0	63.0		1	1.0	0	1	2.0	0	489	0	0	0	unknown
3	1	8	52	19809	3756	0.4363540904596447	1	1.0	815.5998639995232	0.0	32.0	252.0	1	1.0	0	1	2.0	0	490	0	0	0	unknown
3	1	8	53	59629	2262	0.4364003808004781	0	1.0	785.7691910030553	0.0			0	1.0	1	0	1.0	0	491	0	0	0	unknown
3	1	8	54	55281	4784	0.4364466774277389	1	1.0	783.5568970040185	0.0	95.0		1	1.0	0	1	2.0	0	492	0	0	0	unknown
3	1	8	55	26467	5714	0.4365392648614943	1	0.0	2457.0224140043138	0.0	198.0		1	0.0	1	0	1.0	0	493	0	0	0	unknown
3	1	8	56	60119	1108	0.4365855619544163	1	1.0	773.2557530107441	0.0	279.0	389.0	1	1.0	0	1	2.0	0	494	0	0	0	unknown
3	1	8	57	31361	1224	0.4366318522952497	0	1.0	808.5520029999316	0.0			0	1.0	1	0	1.0	0	495	0	0	0	unknown
3	1	8	58	24569	9934	0.4366781470598652	0	1.0	1036.4881820132723	0.0			0	1.0	1	0	1.0	0	496	0	0	0	unknown
3	1	8	59	32260	1317	0.4367244396125897	0	1.0	840.1393700041808	0.0			0	1.0	1	0	1.0	0	497	0	0	0	unknown
3	1	8	60	58145	805	0.4367707348428666	0	1.0	591.1012300057337	0.0			0	1.0	1	0	1.0	0	498	1	0	1	new
3	1	8	61	47453	5274	0.4368169246008619	0	1.0	862.9521120019491	0.0			0	1.0	1	0	1.0	0	499	0	0	0	unknown
3	1	8	62	48228	5350	0.4368632257683202	0	1.0	703.3883030089784	0.0			0	1.0	1	0	1.0	0	500	0	0	0	unknown
3	1	9	1	59629	2262	0.4393711604643613	1	1.0	1402.8944199963007	0.0	9.0		1	1.0	0	1	2.0	0	501	0	0	0	unknown
3	1	9	2	56411	6246	0.4394174645422026	1	0.0	709.3469259998528	0.0	149.0		1	0.0	1	0	1.0	0	502	0	0	0	unknown
3	1	9	3	21595	9272	0.4394637425430119	1	1.0	911.6499009978724	0.0	92.0	203.0	1	1.0	0	1	2.0	0	503	0	0	0	unknown
3	1	9	4	38663	4741	0.4395100506953895	1	1.0	1102.6392380008472	0.0	242.0		1	1.0	0	1	2.0	0	504	0	0	0	unknown
3	1	9	5	11943	145	0.4395563398720696	0	1.0	1262.160705999122	0.0			0	1.0	1	0	1.0	0	505	1	1	1	new
3	1	9	6	39452	6367	0.4396026333561167	0	1.0	1201.3739469985012	0.0			0	1.0	1	0	1.0	0	506	0	0	0	unknown
3	1	9	7	45917	3548	0.4396489281207323	1	1.0	823.9576560008572	0.0	194.0	298.0	1	1.0	0	1	2.0	0	507	0	0	0	unknown
3	1	9	8	58522	2752	0.439695231616497	0	1.0	801.698627998121	0.0			0	1.0	1	0	1.0	0	508	0	0	0	unknown
3	1	9	9	19182	230	0.4397415065905079	1	1.0	2657.653879010468	1.0	74.0		1	1.0	1	1	2.0	0	509	1	0	2	easy
3	1	9	10	31326	9922	0.4397878161398693	0	1.0	831.0050730069634	0.0			0	1.0	1	0	1.0	0	510	0	0	0	unknown
3	1	9	11	15513	5889	0.4398341027554124	0	1.0	1051.8872869870393	0.0			0	1.0	1	0	1.0	0	511	0	0	0	unknown
3	1	9	12	68969	2377	0.4398803986841812	0	1.0	1127.793225998175	0.0			0	1.0	1	0	1.0	0	512	0	0	0	unknown
3	1	9	13	57518	1492	0.4399266905384138	1	1.0	802.9223850026029	0.0	209.0		1	1.0	0	1	2.0	0	513	0	0	0	unknown
3	1	9	14	32274	3194	0.440019279369153	1	1.0	1062.3412339919012	0.0	160.0	319.0	1	1.0	0	1	2.0	0	514	0	0	0	unknown
3	1	9	15	31993	1899	0.4400655854260548	0	1.0	949.1124939959265	0.0			0	1.0	1	0	1.0	0	515	0	0	0	unknown
3	1	9	16	7651	9049	0.4401118630776181	0	1.0	777.5723689992446	0.0			0	1.0	1	0	1.0	0	516	0	0	0	unknown
3	1	9	17	62037	5081	0.4401581591228023	1	0.0	844.9432350025745	0.0	256.0		1	0.0	1	0	1.0	0	517	0	0	0	unknown
3	1	9	18	585	8174	0.4402044478338211	1	1.0	816.2492200062843	0.0	141.0	180.0	1	1.0	0	1	2.0	0	518	0	0	0	unknown
3	1	9	19	20502	1624	0.4402507407357916	0	1.0	737.2897390014259	0.0			0	1.0	1	0	1.0	0	519	0	0	0	unknown
3	1	9	20	38818	511	0.4402970445808023	0	1.0	1067.450768998242	0.0			0	1.0	1	0	1.0	0	520	1	0	1	new
3	1	9	21	9640	4420	0.4403433345723897	0	1.0	884.5616710023022	0.0			0	1.0	2	0	1.0	0	521	0	0	0	unknown
3	1	9	22	28513	5745	0.440389628871344	0	1.0	1077.1553109952947	0.0			0	1.0	1	0	1.0	0	522	0	0	0	unknown
3	1	9	23	11347	3492	0.4404359268955886	0	1.0	1320.819967004354	0.0			0	1.0	1	0	1.0	0	523	0	0	0	unknown
3	1	9	24	66490	919	0.4404822184005752	0	1.0	1116.38778798806	0.0			0	1.0	1	0	1.0	0	524	1	0	1	new
3	1	9	25	19527	5733	0.4405747045530006	0	1.0	940.7348640088456	0.0			0	1.0	1	0	1.0	0	525	0	0	0	unknown
3	1	9	26	8553	8542	0.4406210053712129	0	1.0	1233.1518709979719	0.0			0	1.0	1	0	1.0	0	526	0	0	0	unknown
3	1	9	27	36738	2220	0.4406672901241108	0	1.0	1176.1812949989687	0.0			0	1.0	1	0	1.0	0	527	0	0	0	unknown
3	1	9	28	71233	984	0.4407135951332747	0	1.0	660.1357190083945	0.0			0	1.0	1	0	1.0	0	528	1	0	1	new
3	1	9	29	35049	7057	0.4407598833786323	0	1.0	661.0983430000488	0.0			0	1.0	1	0	1.0	0	529	0	0	0	unknown
3	1	9	30	41940	5896	0.4408061825670301	0	1.0	728.9049259998137	0.0			0	1.0	1	0	1.0	0	530	0	0	0	unknown
3	1	9	31	53414	7390	0.4408524805912747	0	1.0	1124.5379699976183	0.0			0	1.0	1	0	1.0	0	531	0	0	0	unknown
3	1	9	32	38672	5139	0.4408987666247412	0	1.0	762.500507000368	0.0			0	1.0	1	0	1.0	0	532	0	0	0	unknown
3	1	9	33	42892	2320	0.4409450683742761	0	1.0	642.9575990041485	0.0			0	1.0	1	0	1.0	0	533	0	0	0	unknown
3	1	9	34	25539	6169	0.440991360344924	0	1.0	717.5581469928147	0.0			0	1.0	1	0	1.0	0	534	0	0	0	unknown
3	1	9	35	53207	4523	0.4410376469604671	1	1.0	681.1935879959492	0.0	522.0		1	1.0	0	1	2.0	0	535	0	0	0	unknown
3	1	9	36	15655	7240	0.4411302394000813	0	1.0	907.4197719892254	0.0			0	1.0	1	0	1.0	0	536	0	0	0	unknown
3	1	9	37	61671	6069	0.4411765361437574	0	1.0	1221.0826789960263	0.0			0	1.0	1	0	1.0	0	537	0	0	0	unknown
3	1	9	38	17494	6817	0.4412228345172479	0	1.0	701.0198600037256	0.0			0	1.0	1	0	1.0	0	538	0	0	0	unknown
3	1	9	39	42892	2320	0.4412691165925934	1	0.0	1690.6563320080747	0.0	5.0		1	0.0	1	0	1.0	0	539	0	0	0	unknown
3	1	9	40	16243	3951	0.4413154183421283	1	0.0	1084.867473997292	0.0	291.0		1	0.0	1	0	1.0	0	540	0	0	0	unknown
3	1	9	41	24956	7568	0.4413617132231593	0	1.0	1158.7391799985198	0.0			0	1.0	1	0	1.0	0	541	0	0	0	unknown
3	1	9	42	64733	7447	0.4414080104324966	0	1.0	3312.198980987887	0.0			0	1.0	1	0	1.0	0	542	0	0	0	unknown
3	1	9	43	61220	6540	0.4414542990271002	0	1.0	1002.339081998798	0.0			0	1.0	1	0	1.0	0	543	0	0	0	unknown
3	1	9	44	25827	2255	0.4415005955379456	0	1.0	780.2180559956468	0.0			0	1.0	1	0	1.0	0	544	0	0	0	unknown
3	1	9	45	40366	9088	0.4415931840194389	0	1.0	1136.514325000462	0.0			0	1.0	1	0	1.0	0	545	0	0	0	unknown
3	1	9	46	24187	9124	0.4416394762229174	0	1.0	547.7163519972237	0.0			0	1.0	1	0	1.0	0	546	0	0	0	unknown
3	1	9	47	69439	3293	0.4416857643518596	1	1.0	928.6275699996622	0.0	158.0	187.0	1	1.0	0	1	2.0	0	547	0	0	0	unknown
3	1	9	48	14149	2821	0.4417320659849792	0	1.0	738.1353280070471	0.0			0	1.0	1	0	1.0	0	548	0	0	0	unknown
3	1	9	49	46421	4095	0.4417783613316714	0	1.0	773.4847449901282	0.0			0	1.0	1	0	1.0	0	549	0	0	0	unknown
3	1	9	50	15003	4751	0.4418246533023193	1	0.0	1705.8753369929036	0.0	328.0		1	0.0	1	0	1.0	0	550	0	0	0	unknown
3	1	9	51	47754	2755	0.4418708484154194	1	1.0	2121.398446994135	0.0	67.0		1	1.0	0	1	2.0	0	551	0	0	0	unknown
3	1	9	52	54675	7655	0.441917149699293	0	1.0	664.8220560018672	0.0			0	1.0	1	0	1.0	0	552	0	0	0	unknown
3	1	9	53	27130	3807	0.4419634395744651	0	1.0	637.7263629983645	0.0			0	1.0	1	0	1.0	0	553	0	0	0	unknown
3	1	9	54	20103	3457	0.4420097335241734	1	1.0	1213.9160819933747	0.0	267.0	353.0	1	1.0	0	1	2.0	0	554	0	0	0	unknown
3	1	9	55	57894	8109	0.4421023237518966	1	1.0	2285.1727379893414	1.0	115.0		1	1.0	1	1	2.0	0	555	0	0	0	unknown
3	1	9	56	37938	6054	0.4421486163046211	0	1.0	803.3250010048506	0.0			0	1.0	1	0	1.0	0	556	0	0	0	unknown
3	1	9	57	21927	9508	0.4421949053648859	0	1.0	626.8524519982748	0.0			0	1.0	1	0	1.0	0	557	0	0	0	unknown
3	1	9	58	45424	3768	0.4422412056010216	0	1.0	1554.6447509987047	0.0			0	1.0	1	0	1.0	0	558	0	0	0	unknown
3	1	9	59	24603	6410	0.4422875017626211	0	1.0	849.9524319922784	0.0			0	1.0	1	0	1.0	0	559	0	0	0	unknown
3	1	9	60	34822	2328	0.4423337860498577	0	1.0	702.4714080034755	0.0			0	1.0	1	0	1.0	0	560	0	0	0	unknown
3	1	9	61	27130	3807	0.4423800810473039	1	1.0	856.9996779988286	0.0	7.0		1	1.0	0	1	2.0	0	561	0	0	0	unknown
3	1	9	62	64956	7697	0.4424263811670243	0	1.0	719.7651719907299	0.0			0	1.0	1	0	1.0	0	562	0	0	0	unknown
3	1	9	63	15070	8816	0.442472668015398	0	1.0	671.8758839997463	0.0			0	1.0	1	0	1.0	0	563	0	0	0	unknown
3	1	10	1	34917	3444	0.4440744398161768	1	0.0	1773.9586360112298	0.0	314.0	482.0	1	0.0	1	0	1.0	0	564	0	0	0	unknown
3	1	10	2	44214	7744	0.4441207362106069	0	1.0	672.0589290052885	0.0			0	1.0	1	0	1.0	0	565	0	0	0	unknown
3	1	10	3	54386	6106	0.4441670320229604	1	1.0	1342.792688999907	0.0	107.0	295.0	1	1.0	0	1	2.0	0	566	0	0	0	unknown
3	1	10	4	1448	1126	0.4442133259726688	0	1.0	2037.1391880034932	0.0			0	1.0	1	0	1.0	0	567	0	0	0	unknown
3	1	10	5	50182	7339	0.4442596192238852	0	1.0	744.954110996332	0.0			0	1.0	1	0	1.0	0	568	0	0	0	unknown
3	1	10	6	9764	2913	0.4443059159675613	0	1.0	753.1145360117079	0.0			0	1.0	1	0	1.0	0	569	0	0	0	unknown
3	1	10	7	70355	7572	0.4443522016517817	0	1.0	1539.4235260027926	0.0			0	1.0	1	0	1.0	0	570	0	0	0	unknown
3	1	10	8	22032	8516	0.4443985074758529	1	0.0	1607.7955429936992	0.0	202.0		1	0.0	1	0	1.0	0	571	0	0	0	unknown
3	1	10	9	72775	6139	0.4444447917630895	0	1.0	682.6631330040982	0.0			0	1.0	1	0	1.0	0	572	0	0	0	unknown
3	1	10	10	32887	9261	0.4445373732596635	0	1.0	733.7204030045541	0.0			0	1.0	1	0	1.0	0	573	0	0	0	unknown
3	1	10	11	9534	8315	0.444583689328283	1	1.0	1409.91876499902	0.0	167.0	175.0	1	1.0	0	1	2.0	0	574	0	0	0	unknown
3	1	10	12	3627	14	0.4446299644187092	0	1.0	861.8424809974385	0.0			0	1.0	1	0	1.0	0	575	1	0	1	new
3	1	10	13	58517	5660	0.4446762686129659	1	1.0	1102.8292269911617	0.0	178.0		1	1.0	0	1	2.0	0	576	0	0	0	unknown
3	1	10	14	12150	6692	0.4447225582553073	1	1.0	875.8092320058496	0.0	143.0	398.0	1	1.0	0	1	2.0	0	577	0	0	0	unknown
3	1	10	15	18281	4211	0.4447688561631366	0	0.0	1134.3633360083911	0.0			0	0.0	0	1	2.0	0	578	0	0	0	unknown
3	1	10	16	18140	9571	0.4448151385877281	0	1.0	949.3679979932494	0.0			0	1.0	1	0	1.0	0	579	0	0	0	unknown
3	1	10	17	62727	9570	0.4448614495340734	0	1.0	661.2674100033473	0.0			0	1.0	1	0	1.0	0	580	0	0	0	unknown
3	1	10	18	72685	4400	0.444907740689814	0	1.0	773.6329079925781	0.0			0	1.0	1	0	1.0	0	581	0	0	0	unknown
3	1	10	19	13555	8200	0.4449540342902764	0	1.0	665.3100539988372	0.0			0	1.0	1	0	1.0	0	582	0	0	0	unknown
3	1	10	20	63600	5345	0.4450003177626058	0	1.0	774.3060659995534	0.0			0	1.0	1	0	1.0	0	583	0	0	0	unknown
3	1	10	21	66532	4585	0.4450929100858047	0	0.0	2080.839470989304	0.0			0	0.0	0	1	2.0	0	584	0	0	0	unknown
3	1	10	22	62037	5081	0.4451391976326704	1	1.0	1041.9906139868544	0.0	67.0	324.0	1	1.0	0	1	2.0	0	585	0	0	0	unknown
3	1	10	23	34042	7247	0.4451854899525642	0	1.0	985.1475369941908	0.0			0	1.0	1	0	1.0	0	586	0	0	0	unknown
3	1	10	24	10797	5960	0.4452318066032603	0	1.0	821.0649730026489	0.0			0	1.0	1	0	1.0	0	587	0	0	0	unknown
3	1	10	25	51314	6843	0.4452780837891623	1	1.0	789.8166369996034	0.0	244.0	485.0	1	1.0	0	1	2.0	0	588	0	0	0	unknown
3	1	10	26	28332	2726	0.4453243783209472	0	1.0	830.2289330022176	0.0			0	1.0	1	0	1.0	0	589	0	0	0	unknown
3	1	10	27	47309	4285	0.4453706729691475	1	1.0	1048.6226720095146	0.0	141.0	403.0	1	1.0	0	1	2.0	0	590	0	0	0	unknown
3	1	10	28	72788	7449	0.4454169608652591	0	1.0	818.5967210010857	0.0			0	1.0	2	0	1.0	0	591	0	0	0	unknown
3	1	10	29	47058	3909	0.4454632664564996	0	1.0	854.9081119999755	0.0			0	1.0	1	0	1.0	0	592	0	0	0	unknown
3	1	10	30	52171	6194	0.4455558529589325	0	1.0	1462.2319240006618	0.0			0	1.0	1	0	1.0	0	593	0	0	0	unknown
3	1	10	31	57067	3376	0.4456020457437261	1	0.0	660.3742489969591	0.0	484.0		1	0.0	1	0	1.0	0	594	0	0	0	unknown
3	1	10	32	52271	3500	0.4456483549438416	0	1.0	702.7613469981588	0.0			0	1.0	1	0	1.0	0	595	0	0	0	unknown
3	1	10	33	68416	6752	0.4456946392310783	0	1.0	813.5930269927486	0.0			0	1.0	1	0	1.0	0	596	0	0	0	unknown
3	1	10	34	56544	4739	0.4457409390015527	0	1.0	1051.552757009631	0.0			0	1.0	1	0	1.0	0	597	0	0	0	unknown
3	1	10	35	31951	3456	0.445787226432003	0	1.0	1032.339907993446	0.0			0	1.0	1	0	1.0	0	598	0	0	0	unknown
3	1	10	36	19182	230	0.4458335235249251	1	1.0	928.9840840065152	0.0	89.0	164.0	1	1.0	0	1	2.0	0	599	1	0	3	easy
3	1	10	37	45596	616	0.4458798174746334	1	1.0	1018.043813004624	0.0	253.0		1	1.0	0	1	2.0	0	600	1	1	2	easy
3	1	10	38	14529	173	0.4459261128213256	0	1.0	1164.600131000043	0.0			0	1.0	1	0	1.0	0	601	1	0	1	new
3	1	10	39	49876	2163	0.4459724079351872	0	1.0	824.1488670028046	0.0			0	1.0	1	0	1.0	0	602	0	0	0	unknown
3	1	10	40	13397	9008	0.4460649945540353	0	1.0	832.2020350024104	0.0			0	1.0	1	0	1.0	0	603	0	0	0	unknown
3	1	10	41	14033	4465	0.4461112905992195	0	1.0	840.4288129968336	0.0			0	1.0	1	0	1.0	0	604	0	0	0	unknown
3	1	10	42	45094	7198	0.4461575794266536	0	1.0	723.8101139955688	0.0			0	1.0	1	0	1.0	0	605	0	0	0	unknown
3	1	10	43	33007	5817	0.4462038793135434	0	1.0	605.1130619889591	0.0			0	1.0	1	0	1.0	0	606	0	0	0	unknown
3	1	10	44	14626	6148	0.4462501745438203	0	1.0	665.0036900100531	0.0			0	1.0	1	0	1.0	0	607	0	0	0	unknown
3	1	10	45	24298	4356	0.4462964723352342	0	1.0	789.041736003128	0.0			0	1.0	1	0	1.0	0	608	0	0	0	unknown
3	1	10	46	68894	4186	0.4463427568553015	1	0.0	1086.8405069923028	0.0	494.0		1	0.0	1	0	1.0	0	609	0	0	0	unknown
3	1	10	47	17276	1703	0.4463890553452074	1	1.0	922.597651995602	0.0	570.0		1	1.0	0	1	2.0	0	610	0	0	0	unknown
3	1	10	48	49337	9294	0.4464353516232222	0	1.0	746.9556459982413	0.0			0	1.0	1	0	1.0	0	611	0	0	0	unknown
3	1	10	49	992	6311	0.4464816396357491	1	1.0	783.6587610072456	0.0	133.0	256.0	1	1.0	0	1	2.0	0	612	0	0	0	unknown
3	1	10	50	15215	9492	0.4465279323048889	0	1.0	645.6606169958832	0.0			0	1.0	1	0	1.0	0	613	0	0	0	unknown
3	1	10	51	53646	8688	0.4465742179891094	0	1.0	703.7283319950801	0.0			0	1.0	1	0	1.0	0	614	0	0	0	unknown
3	1	10	52	38490	3319	0.446666810195893	0	1.0	864.1151799965882	0.0			0	1.0	1	0	1.0	0	615	0	0	0	unknown
3	1	10	53	2861	1769	0.4467131022829562	0	1.0	637.0872400002554	0.0			0	1.0	1	0	1.0	0	616	0	0	0	unknown
3	1	10	54	44173	8140	0.4467593977460637	0	1.0	704.0209830011008	0.0			0	1.0	1	0	1.0	0	617	0	0	0	unknown
3	1	10	55	48969	7561	0.4468056894838809	0	1.0	654.1556659940397	0.0			0	1.0	1	0	1.0	0	618	0	0	0	unknown
3	1	10	56	72207	2304	0.4468519925139844	0	1.0	963.7148430047091	0.0			0	1.0	1	0	1.0	0	619	0	0	0	unknown
3	1	10	57	36017	2481	0.4468981887912377	0	1.0	748.5233350016641	0.0			0	1.0	1	0	1.0	0	620	0	0	0	unknown
3	1	10	58	22191	2880	0.446944483090192	1	1.0	1020.0423349888296	0.0	402.0		1	1.0	0	1	2.0	0	621	0	0	0	unknown
3	1	10	59	26607	2186	0.446990771102719	1	0.0	1158.7527770025188	0.0	162.0		1	0.0	1	0	1.0	0	622	0	0	0	unknown
3	1	10	60	36038	2935	0.4470370655180886	0	1.0	744.9831360136159	0.0			0	1.0	1	0	1.0	0	623	0	0	0	unknown
3	1	10	61	40679	5193	0.4470833607483655	0	1.0	655.9430990018882	0.0			0	1.0	1	0	1.0	0	624	0	0	0	unknown
3	1	10	62	9918	116	0.447129655862227	1	1.0	928.4604809945448	0.0	267.0		1	1.0	0	1	2.0	0	625	1	0	2	easy
3	1	11	1	6875	9647	0.448791318340227	0	1.0	777.61854500568	0.0			0	1.0	1	0	1.0	0	626	0	0	0	unknown
3	1	11	2	6083	1791	0.4488376207882538	0	1.0	638.694528999622	0.0			0	1.0	1	0	1.0	0	627	0	0	0	unknown
3	1	11	3	70436	1407	0.4488839013502001	0	1.0	622.8821400000015	0.0			0	1.0	1	0	1.0	0	628	0	0	0	unknown
3	1	11	4	56043	770	0.4489302050787955	0	1.0	892.3125039873411	0.0			0	1.0	1	0	1.0	0	629	1	0	1	new
3	1	11	5	41151	2830	0.4489764958852902	0	1.0	1091.095548006706	0.0			0	1.0	1	0	1.0	0	630	0	0	0	unknown
3	1	11	6	30204	2129	0.449022801592946	0	1.0	985.2625669882401	0.0			0	1.0	1	0	1.0	0	631	0	0	0	unknown
3	1	11	7	23856	2579	0.4490690872771665	0	1.0	646.9227979978314	0.0			0	1.0	1	0	1.0	0	632	0	0	0	unknown
3	1	11	8	27752	3014	0.4491153879789635	1	1.0	901.6603560012301	0.0	444.0	540.0	1	1.0	0	1	2.0	0	633	0	0	0	unknown
3	1	11	9	34239	459	0.4491616720333695	0	0.0	1643.490585993277	0.0			0	0.0	0	1	2.0	0	634	1	0	1	new
3	1	11	10	37456	2642	0.449207977973856	0	1.0	677.9853710031603	0.0			0	1.0	1	0	1.0	0	635	0	0	0	unknown
3	1	11	11	22710	8996	0.4492542559746652	0	0.0	1111.3463090005096	0.0			0	0.0	0	1	2.0	0	636	0	0	0	unknown
3	1	11	12	28513	5745	0.4493005487602204	1	1.0	1137.084848000086	0.0	114.0		1	1.0	0	1	2.0	0	637	0	0	0	unknown
3	1	11	13	43657	3410	0.4493930452736094	0	1.0	868.6494229914388	0.0			0	1.0	1	0	1.0	0	638	0	0	0	unknown
3	1	11	14	54703	8116	0.4494393463246524	0	1.0	904.6489320026013	0.0			0	1.0	1	0	1.0	0	639	0	0	0	unknown
3	1	11	15	19527	5733	0.4494856357341632	1	1.0	887.9084949876415	0.0	114.0		1	1.0	0	1	2.0	0	640	0	0	0	unknown
3	1	11	16	16243	3951	0.4495319302659481	1	1.0	1176.8727380112975	0.0	100.0	392.0	1	1.0	0	1	2.0	0	641	0	0	0	unknown
3	1	11	17	9304	1482	0.449578218976967	0	1.0	815.8229660039069	0.0			0	1.0	1	0	1.0	0	642	0	0	0	unknown
3	1	11	18	5033	4599	0.4496245199115946	0	1.0	828.8108590058982	0.0			0	1.0	1	0	1.0	0	643	0	0	0	unknown
3	1	11	19	36601	4040	0.4496708119986578	0	1.0	725.7749590062302	0.0			0	1.0	1	0	1.0	0	644	0	0	0	unknown
3	1	11	20	52971	4982	0.4497171007096767	0	1.0	870.4463790054433	0.0			0	1.0	1	0	1.0	0	645	0	0	0	unknown
3	1	11	21	19448	8474	0.4497633926803246	0	1.0	864.3281190015841	0.0			0	1.0	1	0	1.0	0	646	0	0	0	unknown
3	1	11	22	25524	9657	0.4498096945462748	1	1.0	982.6423870108557	0.0	321.0		1	1.0	0	1	2.0	0	647	0	0	0	unknown
3	1	11	23	38771	6168	0.4499022822128608	0	0.0	2231.388517000596	1.0			0	0.0	1	1	2.0	0	648	0	0	0	unknown
3	1	11	24	15805	6537	0.4499485803535208	0	1.0	891.0149059956893	0.0			0	1.0	1	0	1.0	0	649	0	0	0	unknown
3	1	11	25	42828	4759	0.4499948711600154	0	1.0	716.4206220040796	0.0			0	1.0	1	0	1.0	0	650	0	0	0	unknown
3	1	11	26	13691	5514	0.4500411568442359	1	1.0	1017.6823529909595	0.0	171.0		1	1.0	0	1	2.0	0	651	0	0	0	unknown
3	1	11	27	48889	4620	0.4500874534714967	0	1.0	1378.1331080099335	0.0			0	1.0	1	0	1.0	0	652	0	0	0	unknown
3	1	11	28	29289	7333	0.4501337521942332	0	1.0	822.7078609925229	0.0			0	1.0	1	0	1.0	0	653	0	0	0	unknown
3	1	11	29	9715	1069	0.4501800428843125	0	1.0	756.2512190052075	0.0			0	1.0	1	0	1.0	0	654	0	0	0	unknown
3	1	11	30	52514	1218	0.4502263414906337	0	1.0	884.3243380106286	0.0			0	1.0	1	0	1.0	0	655	0	0	0	unknown
3	1	11	31	8878	1512	0.45027263648808	0	1.0	619.3977509974502	0.0			0	1.0	1	0	1.0	0	656	0	0	0	unknown
3	1	11	32	5033	4599	0.4503189314855262	1	1.0	1107.3258420074123	0.0	13.0		1	1.0	0	1	2.0	0	657	0	0	0	unknown
3	1	11	33	15520	1040	0.4503652268322184	0	1.0	1373.9949930022703	0.0			0	1.0	1	0	1.0	0	658	0	0	0	unknown
3	1	11	34	20502	1624	0.4504115184536203	1	1.0	1510.9717750019627	1.0	139.0		1	1.0	1	1	2.0	0	659	0	0	0	unknown
3	1	11	35	44112	1808	0.4505041101947426	1	0.0	1275.5603599944152	0.0	333.0		1	0.0	1	0	1.0	0	660	0	0	0	unknown
3	1	11	36	35723	4690	0.4505503945983946	0	1.0	855.030168997473	0.0			0	1.0	1	0	1.0	0	661	0	0	0	unknown
3	1	11	37	20862	5019	0.4505966986762359	0	1.0	854.1479959967546	0.0			0	1.0	1	0	1.0	0	662	0	0	0	unknown
3	1	11	38	21846	5219	0.4506428920431062	0	1.0	847.7866169996558	0.0			0	1.0	1	0	1.0	0	663	0	0	0	unknown
3	1	11	39	6761	9102	0.4506891841301694	0	1.0	707.8628309973283	0.0			0	1.0	1	0	1.0	0	664	0	0	0	unknown
3	1	11	40	57631	9621	0.4507354829693213	1	0.0	863.8127260055626	0.0	547.0		1	0.0	1	0	1.0	0	665	0	0	0	unknown
3	1	11	41	65180	5874	0.4507817764533683	0	1.0	670.747529991786	0.0			0	1.0	1	0	1.0	0	666	0	0	0	unknown
3	1	11	42	14122	169	0.4508280628360807	0	1.0	1314.809529998456	0.0			0	1.0	1	0	1.0	0	667	1	0	1	new
3	1	11	43	40366	9088	0.4508743665646761	1	1.0	1001.4166699984344	0.0	122.0		1	1.0	0	1	2.0	0	668	0	0	0	unknown
3	1	11	44	67604	4637	0.4509669472463428	0	1.0	782.7454719954403	0.0			0	1.0	1	0	1.0	0	669	0	0	0	unknown
3	1	11	45	3411	4522	0.4510132434079423	0	1.0	802.5119459925918	0.0			0	1.0	1	0	1.0	0	670	0	0	0	unknown
3	1	11	46	15858	7224	0.4510595418978482	0	1.0	750.4122540121898	0.0			0	1.0	1	0	1.0	0	671	0	0	0	unknown
3	1	11	47	49067	3822	0.4511058295611292	0	1.0	564.7157539933687	0.0			0	1.0	1	0	1.0	0	672	0	0	0	unknown
3	1	11	48	27920	6407	0.4511521272361278	0	1.0	618.8091499934671	0.0			0	1.0	1	0	1.0	0	673	0	0	0	unknown
3	1	11	49	25942	8393	0.4511984223499894	0	0.0	1333.0283040122595	0.0			0	0.0	0	1	2.0	0	674	0	0	0	unknown
3	1	11	50	54703	8116	0.4512447166489437	1	1.0	1012.737583994749	0.0	35.0		1	1.0	0	1	2.0	0	675	0	0	0	unknown
3	1	11	51	15938	2044	0.4512910058256238	0	1.0	785.702303997823	0.0			0	1.0	1	0	1.0	0	676	0	0	0	unknown
3	1	11	52	23173	3862	0.4513373001245781	1	0.0	782.941479992587	0.0	247.0		1	0.0	1	0	1.0	0	677	0	0	0	unknown
3	1	11	53	41370	8019	0.451383599312976	0	1.0	775.5496750032762	0.0			0	1.0	1	0	1.0	0	678	0	0	0	unknown
3	1	11	54	70436	1407	0.451476186979562	1	1.0	1091.249464006978	0.0	50.0		1	1.0	0	1	2.0	0	679	0	0	0	unknown
3	1	11	55	55349	7367	0.4515224768547341	1	1.0	874.2840909981168	0.0	589.0		1	1.0	0	1	2.0	0	680	0	0	0	unknown
3	1	11	56	5591	8706	0.4515687735984101	0	0.0	2058.4798420022707	1.0			0	0.0	1	1	2.0	0	681	0	0	0	unknown
3	1	11	57	52429	2753	0.4516150669660419	0	1.0	658.9179029979276	0.0			0	1.0	1	0	1.0	0	682	0	0	0	unknown
3	1	11	58	51628	3802	0.451661363360472	0	1.0	702.7408559952164	0.0			0	1.0	1	0	1.0	0	683	0	0	0	unknown
3	1	11	59	25524	9657	0.4517076613847166	1	1.0	817.2825950023251	0.0	36.0	358.0	1	1.0	0	1	2.0	0	684	0	0	0	unknown
3	1	11	60	26467	5714	0.451753944857046	1	1.0	1347.2528999991482	0.0	191.0	390.0	1	1.0	0	1	2.0	0	685	0	0	0	unknown
3	1	11	61	26352	347	0.451800151146017	0	1.0	1039.8900550062535	0.0			0	1.0	1	0	1.0	0	686	1	0	1	new
3	1	11	62	3411	4522	0.4518464442808181	1	1.0	978.1114860088563	0.0	16.0		1	1.0	0	1	2.0	0	687	0	0	0	unknown
3	1	11	63	47251	5102	0.4518927343888208	0	1.0	1657.4345150002043	0.0			0	1.0	1	0	1.0	0	688	0	0	0	unknown
3	1	12	1	70876	1122	0.4534787874436005	0	1.0	1202.5869810022411	0.0			0	1.0	1	0	1.0	0	689	0	0	0	unknown
3	1	12	2	4787	36	0.4535250953631475	1	0.0	724.4823439978062	0.0	286.0		1	0.0	1	0	1.0	0	690	1	0	2	easy
3	1	12	3	35464	5273	0.4535713766235858	0						0		0	0		0	691	0	0	0	unknown
3	1	12	4	72599	9335	0.4536176787223666	1	0.0	1659.360250996542	0.0	269.0		1	0.0	1	0	1.0	0	692	0	0	0	unknown
3	1	12	5	43657	3410	0.4536639666184782	1	1.0	1379.1673070081742	0.0	54.0		1	1.0	0	1	2.0	0	693	0	0	0	unknown
3	1	12	6	32351	5670	0.4537102649919688	0	1.0	653.5537099989597	0.0			0	1.0	1	0	1.0	0	694	0	0	0	unknown
3	1	12	7	15108	5449	0.4537565589416772	0	1.0	1374.9816570052644	0.0			0	1.0	1	0	1.0	0	695	0	0	0	unknown
3	1	12	8	70083	4580	0.4538028618553653	0	1.0	1044.0005699929316	0.0			0	1.0	1	0	1.0	0	696	0	0	0	unknown
3	1	12	9	15110	1994	0.4538491399725899	0	1.0	647.0500110008288	0.0			0	1.0	1	0	1.0	0	697	0	0	0	unknown
3	1	12	10	26551	1386	0.4538954519666731	0	1.0	688.1500989984488	0.0			0	1.0	1	0	1.0	0	698	0	0	0	unknown
3	1	12	11	51291	9828	0.453941733459942	0	1.0	1050.1097500091419	0.0			0	1.0	1	0	1.0	0	699	0	0	0	unknown
3	1	12	12	54887	9484	0.4539880277588963	1	0.0	802.0218989986461	0.0	371.0		1	0.0	1	0	1.0	0	700	0	0	0	unknown
3	1	12	13	57965	1490	0.45403432182502	0	1.0	677.4257680081064	0.0			0	1.0	1	0	1.0	0	701	0	0	0	unknown
3	1	12	14	11160	131	0.4541269106557592	0	1.0	851.0851400060345	0.0			0	1.0	1	0	1.0	0	702	1	0	1	new
3	1	12	15	29208	5518	0.4541732099605724	0	1.0	827.2962150076637	0.0			0	1.0	1	0	1.0	0	703	0	0	0	unknown
3	1	12	16	2498	1103	0.4542194985551759	0	1.0	975.7987319899256	0.0			0	1.0	1	0	1.0	0	704	0	0	0	unknown
3	1	12	17	7345	5354	0.4542657925048843	0	1.0	1036.3543470011791	0.0			0	1.0	1	0	1.0	0	705	0	0	0	unknown
3	1	12	18	34235	8405	0.4543120845919474	0	1.0	777.348126997822	0.0			0	1.0	1	0	1.0	0	706	0	0	0	unknown
3	1	12	19	28501	4272	0.4543583842460066	0	1.0	1137.9601639928296	0.0			0	1.0	1	0	1.0	0	707	0	0	0	unknown
3	1	12	20	69484	9513	0.4544045756338164	0	1.0	677.3154620022979	0.0			0	1.0	1	0	1.0	0	708	0	0	0	unknown
3	1	12	21	52798	7408	0.4544508722610771	0	1.0	741.2500389909836	0.0			0	1.0	1	0	1.0	0	709	0	0	0	unknown
3	1	12	22	9764	2913	0.4544971653958782	1	0.0	543.3890290005364	0.0	140.0		1	0.0	1	0	1.0	0	710	0	0	0	unknown
3	1	12	23	69708	1834	0.4545434602769091	0	1.0	1002.622974003316	0.0			0	1.0	1	0	1.0	0	711	0	0	0	unknown
3	1	12	24	32794	7141	0.4546360482927411	0	1.0	831.7077490064547	0.0			0	1.0	1	0	1.0	0	712	0	0	0	unknown
3	1	12	25	50958	1784	0.4546823429409414	0	1.0	803.0901890015228	0.0			0	1.0	1	0	1.0	0	713	0	0	0	unknown
3	1	12	26	26729	3880	0.4547286281595006	0	0.0	1054.3627979932353	0.0			0	0.0	0	1	2.0	0	714	0	0	0	unknown
3	1	12	27	70436	1407	0.454774928279221	1	1.0	854.3359989998862	0.0	35.0	86.0	1	1.0	0	1	2.0	0	715	0	0	0	unknown
3	1	12	28	65222	5778	0.4548212238587439	0	1.0	765.7913580042077	0.0			0	1.0	1	0	1.0	0	716	0	0	0	unknown
3	1	12	29	20257	5306	0.4548675193218514	0	1.0	677.5131890026387	0.0			0	1.0	1	0	1.0	0	717	0	0	0	unknown
3	1	12	30	60498	6677	0.4549138126894831	0	1.0	587.0422389998566	0.0			0	1.0	1	0	1.0	0	718	0	0	0	unknown
3	1	12	31	23151	6378	0.4549600979080423	0	1.0	869.8484329943312	0.0			0	1.0	1	0	1.0	0	719	0	0	0	unknown
3	1	12	32	8912	2451	0.4550063933711498	1	0.0	670.0005029997556	0.0	305.0		1	0.0	1	0	1.0	0	720	0	0	0	unknown
3	1	12	33	49067	3822	0.4550526889506727	1	0.0	662.3622010083636	0.0	48.0		1	0.0	1	0	1.0	0	721	0	0	0	unknown
3	1	12	34	68562	5870	0.4551452862797304	0	0.0	1410.29879800044	0.0			0	0.0	0	1	2.0	0	722	0	0	0	unknown
3	1	12	35	30119	2567	0.4551915733609348	0	1.0	636.321409008815	0.0			0	1.0	1	0	1.0	0	723	0	0	0	unknown
3	1	12	36	59164	1446	0.4552378715015947	0	1.0	766.5575559949502	0.0			0	1.0	1	0	1.0	0	724	0	0	0	unknown
3	1	12	37	14529	173	0.4552841680124402	1	1.0	902.6034900016384	0.0	123.0		1	1.0	0	1	2.0	0	725	1	0	2	easy
3	1	12	38	31850	5360	0.4553304591681808	0	1.0	914.4116220122669	0.0			0	1.0	1	0	1.0	0	726	0	0	0	unknown
3	1	12	39	38771	6168	0.4553767495090141	1	1.0	1016.7720600002212	0.0	78.0		1	1.0	0	1	2.0	0	727	0	0	0	unknown
3	1	12	40	5033	4599	0.4554230493959039	1	1.0	902.7332599944201	0.0	70.0	84.0	1	1.0	0	1	2.0	0	728	0	0	0	unknown
3	1	12	41	11110	4614	0.4554693344980478	0	1.0	1002.9964559944347	0.0			0	1.0	1	0	1.0	0	729	0	0	0	unknown
3	1	12	42	5736	8417	0.4555156403221189	0	1.0	1370.3914399957284	0.0			0	1.0	1	0	1.0	0	730	0	0	0	unknown
3	1	12	43	39647	2034	0.4556081184418871	0	1.0	764.1605979879386	0.0			0	1.0	1	0	1.0	0	731	0	0	0	unknown
3	1	12	44	29838	398	0.4556544232182204	0	1.0	636.1061159987003	0.0			0	1.0	1	0	1.0	0	732	1	0	1	new
3	1	12	45	46912	8629	0.4557007092516869	0	1.0	1959.5511770021403	0.0			0	1.0	1	0	1.0	0	733	0	0	0	unknown
3	1	12	46	14848	1411	0.4557470106519758	0	1.0	817.5488079868956	0.0			0	1.0	1	0	1.0	0	734	0	0	0	unknown
3	1	12	47	61971	2152	0.4557933044852688	0	1.0	817.7084490016568	0.0			0	1.0	1	0	1.0	0	735	0	0	0	unknown
3	1	12	48	71502	6858	0.4558395997155457	0	1.0	1548.4725830028765	0.0			0	1.0	1	0	1.0	0	736	0	0	0	unknown
3	1	12	49	40351	9391	0.4558858927339315	0	1.0	773.9458030118839	0.0			0	1.0	1	0	1.0	0	737	0	0	0	unknown
3	1	12	50	7345	5354	0.4559321880806237	1	1.0	926.3487279968105	0.0	32.0		1	1.0	0	1	2.0	0	738	0	0	0	unknown
3	1	12	51	58145	805	0.4559784830780699	1	1.0	941.6726589988684	0.0	240.0		1	1.0	0	1	2.0	0	739	1	0	2	easy
3	1	12	52	3397	4665	0.4560710681835189	0	0.0	1458.9589340030216	0.0			0	0.0	0	1	2.0	0	740	0	0	0	unknown
3	1	12	53	48969	7561	0.4561173575930297	1	0.0	2006.1694360047115	0.0	122.0		1	0.0	1	0	1.0	0	741	0	0	0	unknown
3	1	12	54	12979	8160	0.4561636585276573	0	1.0	809.0764100052182	0.0			0	1.0	1	0	1.0	0	742	0	0	0	unknown
3	1	12	55	9938	2161	0.456209949683398	0	1.0	667.6342129940167	0.0			0	1.0	1	0	1.0	0	743	0	0	0	unknown
3	1	12	56	27777	7903	0.4562562429346144	0	1.0	858.7587940128286	0.0			0	1.0	1	0	1.0	0	744	0	0	0	unknown
3	1	12	57	37964	7560	0.4563025361858308	0	1.0	590.0825549906585	0.0			0	1.0	1	0	1.0	0	745	0	0	0	unknown
3	1	12	58	19116	2370	0.4563488271087408	0	1.0	767.9720619926229	0.0			0	1.0	1	0	1.0	0	746	0	0	0	unknown
3	1	12	59	68555	2563	0.4563951293239369	0	1.0	821.0451960039791	0.0			0	1.0	1	0	1.0	0	747	0	0	0	unknown
3	1	12	60	48682	670	0.456441419897601	0	1.0	776.0639439948136	0.0			0	1.0	1	0	1.0	0	748	1	0	1	new
3	1	12	61	26367	9409	0.4564877164084464	0	1.0	762.2151149989804	0.0			0	1.0	1	0	1.0	0	749	0	0	0	unknown
3	1	12	62	32059	9681	0.456534010823816	0	1.0	690.7240959990304	0.0			0	1.0	1	0	1.0	0	750	0	0	0	unknown
3	2	1	1	36159	8819	8.402582271257414	0	1.0	1311.1003290000551	0.0			0	1.0	1	0	1.0	0	751	0	0	0	unknown
3	2	1	2	2808	2972	8.40262857475318	0	1.0	711.2010480000208	0.0			0	1.0	1	0	1.0	0	752	0	0	0	unknown
3	2	1	3	14595	175	8.402674864861185	0	1.0	536.6148309999517	0.0			0	1.0	1	0	1.0	0	753	1	0	1	new
3	2	1	4	25539	6169	8.402721171383748	1	0.0	632.0630529999107	0.0	219.0		0	1.0	1	0	1.0	0	754	0	0	0	unknown
3	2	1	5	68972	1591	8.402767459279858	0	1.0	567.3438069998156	0.0			0	1.0	1	0	1.0	0	755	0	0	0	unknown
3	2	1	6	3092	4692	8.402813765918836	0	1.0	533.2406439997612	0.0			0	1.0	1	0	1.0	0	756	0	0	0	unknown
3	2	1	7	45910	4152	8.402860042057	0	1.0	724.1376659999331	0.0			0	1.0	1	0	1.0	0	757	0	0	0	unknown
3	2	1	8	56471	7167	8.402906363015063	0	1.0	615.997081000387	0.0			0	1.0	1	0	1.0	0	758	0	0	0	unknown
3	2	1	9	14033	4465	8.402952625299804	1	0.0	507.9610380003032	0.0	154.0		0	1.0	1	0	1.0	0	759	0	0	0	unknown
3	2	1	10	49048	5313	8.4029989229748	0	1.0	724.8401409997314	0.0			0	1.0	1	0	1.0	0	760	0	0	0	unknown
3	2	1	11	24481	305	8.403045219602062	0	1.0	747.1384349996698	0.0			0	1.0	1	0	1.0	0	761	1	0	1	new
3	2	1	12	21016	9575	8.403091545333153	1	0.0	599.0773339999578	0.0	346.0		0	1.0	1	0	1.0	0	762	0	0	0	unknown
3	2	1	13	36975	487	8.403137808665633	0	1.0	663.961904000189	0.0			0	1.0	1	0	1.0	0	763	1	1	1	new
3	2	1	14	37941	3997	8.403184142196553	0	1.0	677.6465890002328	0.0			0	1.0	1	0	1.0	0	764	0	0	0	unknown
3	2	1	15	53414	7390	8.403276739642024	1	0.0	715.1551930001006	0.0	233.0		0	1.0	1	0	1.0	0	765	0	0	0	unknown
3	2	1	16	63900	1277	8.403322976198977	0	1.0	703.2101380000313	0.0			0	1.0	1	0	1.0	0	766	0	0	0	unknown
3	2	1	17	3177	2195	8.403369333827868	0	1.0	797.7272620000804	0.0			0	1.0	1	0	1.0	0	767	0	0	0	unknown
3	2	1	18	27861	5101	8.403415567241609	0	1.0	988.3990859998448	0.0			0	1.0	1	0	1.0	0	768	0	0	0	unknown
3	2	1	19	65494	1826	8.403461933135986	0	1.0	685.890252000263	0.0			0	1.0	1	0	1.0	0	769	0	0	0	unknown
3	2	1	20	68972	1591	8.403508158633485	1	1.0	1078.2639359999848	0.0	14.0		1	1.0	0	1	2.0	0	770	0	0	0	unknown
3	2	1	21	39573	2080	8.403554530115798	0	1.0	772.4942790000568	0.0			0	1.0	1	0	1.0	0	771	0	0	0	unknown
3	2	1	22	64065	3804	8.403600753634237	0	1.0	766.2590290001389	0.0			0	1.0	1	0	1.0	0	772	0	0	0	unknown
3	2	1	23	10152	2773	8.403647124534473	0	1.0	712.0179120001922	0.0			0	1.0	1	0	1.0	0	773	0	0	0	unknown
3	2	1	24	63600	5345	8.403739722562023	1	0.0	615.9125760000279	0.0	190.0		0	1.0	1	0	1.0	0	774	0	0	0	unknown
3	2	1	25	13860	7130	8.403785922797395	1	0.0	1279.622028999711	0.0	336.0	497.0	0	1.0	1	0	1.0	0	775	0	0	0	unknown
3	2	1	26	47314	3770	8.403832306154072	1	0.0	858.2526440000038	0.0	646.0		0	1.0	1	0	1.0	0	776	0	0	0	unknown
3	2	1	27	26551	1386	8.403878514654934	1	0.0	776.9244850001088	0.0	78.0		0	1.0	1	0	1.0	0	777	0	0	0	unknown
3	2	1	28	51171	9317	8.403924902668223	0	1.0	930.5532839998704	0.0			0	1.0	1	0	1.0	0	778	0	0	0	unknown
3	2	1	29	63750	8105	8.403971103951337	0	1.0	1307.3185069997635	0.0			0	1.0	1	0	1.0	0	779	0	0	0	unknown
3	2	1	30	64048	8280	8.404017498833126	1	0.0	1493.6459020000257	0.0	413.0		0	1.0	1	0	1.0	0	780	0	0	0	unknown
3	2	1	31	36911	485	8.404063689056784	0	1.0	764.1520300003322	0.0			0	1.0	1	0	1.0	0	781	1	0	1	new
3	2	1	32	16703	200	8.404109906288795	0	1.0	811.9669620000423	0.0			0	1.0	1	0	1.0	0	782	1	0	1	new
3	2	1	33	29760	9130	8.404156176256947	0	1.0	902.5230419997569	0.0			0	1.0	1	0	1.0	0	783	0	0	0	unknown
3	2	1	34	35219	2587	8.404202484758569	0	1.0	1152.148403999945	0.0			0	1.0	1	0	1.0	0	784	0	0	0	unknown
3	2	1	35	18022	2904	8.404248762642963	0	1.0	1171.045997999954	0.0			0	1.0	1	0	1.0	0	785	0	0	0	unknown
3	2	1	36	54547	4239	8.404341356479561	0	1.0	1052.198714000042	0.0			0	1.0	1	0	1.0	0	786	0	0	0	unknown
3	2	1	37	31591	8001	8.404387652175503	0	1.0	740.2242910002313	0.0			0	1.0	1	0	1.0	0	787	0	0	0	unknown
3	2	1	38	11178	3312	8.40443394635804	0	1.0	772.2125939999387	0.0			0	1.0	1	0	1.0	0	788	0	0	0	unknown
3	2	1	39	6554	6903	8.40448023530189	0	1.0	619.6415429999432	0.0			0	1.0	1	0	1.0	0	789	0	0	0	unknown
3	2	1	40	49048	5313	8.404526525875553	1	1.0	1239.4407140000112	0.0	29.0		1	1.0	0	1	2.0	0	790	0	0	0	unknown
3	2	1	41	45065	5567	8.404572827857919	0	1.0	1010.4211070001838	0.0			0	1.0	1	0	1.0	0	791	0	0	0	unknown
3	2	1	42	21550	9012	8.404619117733091	0	1.0	704.1579639999327	0.0			0	1.0	1	0	1.0	0	792	0	0	0	unknown
3	2	1	43	2069	5208	8.404665407841094	0	1.0	702.8632110000217	0.0			0	1.0	1	0	1.0	0	793	0	0	0	unknown
3	2	1	44	23213	3475	8.404711708193645	0	1.0	732.0325860000595	0.0			0	1.0	1	0	1.0	0	794	0	0	0	unknown
3	2	1	45	10317	2336	8.404757997486739	1	0.0	919.6762789997592	0.0	366.0	433.0	0	1.0	1	0	1.0	0	795	0	0	0	unknown
3	2	1	46	13397	9008	8.40485058433842	1	0.0	666.1243570001716	0.0	192.0		0	1.0	1	0	1.0	0	796	0	0	0	unknown
3	2	1	47	15883	7974	8.404896887135692	1	0.0	709.3584980002561	0.0	333.0	539.0	0	1.0	1	0	1.0	0	797	0	0	0	unknown
3	2	1	48	16232	8441	8.404943180386908	1	1.0	2019.8607519996583	1.0	582.0		0	0.0	1	1	2.0	0	798	0	0	0	unknown
3	2	1	49	5603	53	8.404989471659064	1	0.0	847.1100120000301	0.0	565.0		0	1.0	1	0	1.0	0	799	1	0	2	hard
3	2	1	50	3627	14	8.405035768519156	1	1.0	1779.6790200000032	0.0	224.0		0	0.0	0	1	2.0	0	800	1	0	2	hard
3	2	1	51	25827	2255	8.40508206631057	1	1.0	1731.145616000049	0.0	256.0		0	0.0	0	1	2.0	0	801	0	0	0	unknown
3	2	1	52	65273	4096	8.405128349317236	0	1.0	1238.2933990002127	0.0			0	1.0	1	0	1.0	0	802	0	0	0	unknown
3	2	1	53	61749	848	8.405174645129591	0	1.0	818.7070640001366	0.0			0	1.0	1	0	1.0	0	803	1	0	1	new
3	2	1	54	39295	4139	8.405220937100239	0	1.0	804.2074789996149	0.0			0	1.0	1	0	1.0	0	804	0	0	0	unknown
3	2	1	55	35299	9969	8.405313536874017	0	1.0	948.0349310001656	0.0			0	1.0	1	0	1.0	0	805	0	0	0	unknown
3	2	1	56	47265	5604	8.40535982127767	0	1.0	1185.179720999713	0.0			0	1.0	1	0	1.0	0	806	0	0	0	unknown
3	2	1	57	70241	5629	8.40540611546021	0	1.0	748.4459990000688	0.0			0	1.0	1	0	1.0	0	807	0	0	0	unknown
3	2	1	58	16555	5555	8.40545240812935	0	1.0	2062.851690000116	0.0			0	1.0	1	0	1.0	0	808	0	0	0	unknown
3	2	1	59	8007	86	8.405498706852086	0	1.0	1669.3193010000869	0.0			0	1.0	1	0	1.0	0	809	1	0	1	new
3	2	1	60	48047	7292	8.405544906039722	0	1.0	1008.8975510002456	0.0			0	1.0	1	0	1.0	0	810	0	0	0	unknown
3	2	1	61	22520	2391	8.405591194867155	0	1.0	1645.5655490003664	0.0			0	1.0	1	0	1.0	0	811	0	0	0	unknown
3	2	1	62	30354	1282	8.405637496267445	0	1.0	1415.6832349999604	0.0			0	1.0	1	0	1.0	0	812	0	0	0	unknown
3	2	1	63	61971	2152	8.405683785094878	1	0.0	1291.7574630000672	0.0	77.0		0	1.0	1	0	1.0	0	813	0	0	0	unknown
3	2	2	1	21293	7785	8.407121705589816	0	1.0	1368.9160549997723	0.0			0	1.0	1	0	1.0	0	814	0	0	0	unknown
3	2	2	2	10945	4946	8.40716800733935	0	1.0	1271.0123990000284	0.0			0	1.0	1	0	1.0	0	815	0	0	0	unknown
3	2	2	3	10596	6483	8.407214291743001	0	1.0	1257.1781149999879	0.0			0	1.0	1	0	1.0	0	816	0	0	0	unknown
3	2	2	4	2812	1436	8.407260597101411	0	1.0	1006.511667000268	0.0			0	1.0	1	0	1.0	0	817	0	0	0	unknown
3	2	2	5	68271	6808	8.407306881155817	0	1.0	1050.6162860001496	0.0			0	1.0	1	0	1.0	0	818	0	0	0	unknown
3	2	2	6	40616	6129	8.407353169750422	0	1.0	1103.755043000092	0.0			0	1.0	1	0	1.0	0	819	0	0	0	unknown
3	2	2	7	40951	3625	8.407399466959758	0	1.0	832.5368480000179	0.0			0	1.0	1	0	1.0	0	820	0	0	0	unknown
3	2	2	8	49741	4127	8.407445766148157	0	1.0	784.5108659998915	0.0			0	1.0	1	0	1.0	0	821	0	0	0	unknown
3	2	2	9	4787	36	8.407492054859176	1	0.0	972.4257610000675	0.0	131.0	418.0	0	1.0	1	0	1.0	0	822	1	0	3	hard
3	2	2	10	40951	3625	8.407538346480578	1	1.0	950.2075440000226	0.0	2.0		1	1.0	0	1	2.0	0	823	0	0	0	unknown
3	2	2	11	72333	8509	8.407630929723382	0	1.0	869.8905310002374	0.0			0	1.0	1	0	1.0	0	824	0	0	0	unknown
3	2	2	12	40973	7629	8.407677233451977	0	1.0	783.2051039999895	0.0			0	1.0	1	0	1.0	0	825	0	0	0	unknown
3	2	2	13	52514	1218	8.407723525888287	1	0.0	1753.8040549998186	1.0	170.0		0	1.0	1	1	1.0	0	826	0	0	0	unknown
3	2	2	14	24603	6410	8.407769816578364	1	0.0	2521.261592999963	0.0	267.0		0	1.0	1	0	1.0	0	827	0	0	0	unknown
3	2	2	15	13139	159	8.40781611960847	0	1.0	748.5529460000179	0.0			0	1.0	1	0	1.0	0	828	1	1	1	new
3	2	2	16	36911	485	8.407862405409105	1	1.0	902.9962300000989	0.0	47.0		1	1.0	0	1	2.0	0	829	1	0	2	easy
3	2	2	17	47726	3127	8.407908696564844	0	1.0	780.3548639999462	0.0			0	1.0	1	0	1.0	0	830	0	0	0	unknown
3	2	2	18	69267	9744	8.407954995403998	0	1.0	1031.1091159996977	0.0			0	1.0	1	0	1.0	0	831	0	0	0	unknown
3	2	2	19	27065	3412	8.408001285628414	0	1.0	1060.8992340003167	0.0			0	1.0	1	0	1.0	0	832	0	0	0	unknown
3	2	2	20	13621	9461	8.408047487260772	0	1.0	862.4123829999917	0.0			0	1.0	1	0	1.0	0	833	0	0	0	unknown
3	2	2	21	48889	4620	8.408140070037916	1	0.0	777.13439199988	0.0	181.0		0	1.0	1	0	1.0	0	834	0	0	0	unknown
3	2	2	22	8703	4250	8.408186376444064	0	1.0	1060.1539670001328	0.0			0	1.0	1	0	1.0	0	835	0	0	0	unknown
3	2	2	23	15070	8816	8.408232658635825	1	0.0	888.6541409997336	0.0	272.0		0	1.0	1	0	1.0	0	836	0	0	0	unknown
3	2	2	24	35219	2587	8.408278962480836	1	1.0	925.8956099997706	0.0	52.0		1	1.0	0	1	2.0	0	837	0	0	0	unknown
3	2	2	25	5192	7627	8.40832525526639	0	1.0	1065.45282199977	0.0			0	1.0	1	0	1.0	0	838	0	0	0	unknown
3	2	2	26	25455	327	8.408371540368535	0	1.0	971.1874259996877	0.0			0	1.0	1	0	1.0	0	839	1	0	1	new
3	2	2	27	23368	7054	8.408417843049392	0	1.0	1777.6685919998272	0.0			0	1.0	1	0	1.0	0	840	0	0	0	unknown
3	2	2	28	21741	6637	8.408464134554377	0	1.0	1562.3696070001643	0.0			0	1.0	1	0	1.0	0	841	0	0	0	unknown
3	2	2	29	48822	4945	8.40851042291615	0	1.0	1004.2261660000804	0.0			0	1.0	1	0	1.0	0	842	0	0	0	unknown
3	2	2	30	55708	3524	8.40855672501493	0	1.0	1170.6301359999995	0.0			0	1.0	1	0	1.0	0	843	0	0	0	unknown
3	2	2	31	11423	8854	8.408603015705012	0	1.0	1221.2555119999706	0.0			0	1.0	1	0	1.0	0	844	0	0	0	unknown
3	2	2	32	49067	3822	8.408649316523224	1	0.0	762.4081220001245	0.0	123.0	172.0	0	1.0	1	0	1.0	0	845	0	0	0	unknown
3	2	2	33	14529	173	8.408695607446134	1	1.0	1622.2373840000728	1.0	120.0	244.0	0	0.0	1	1	2.0	0	846	1	0	3	hard
3	2	2	34	71750	3975	8.408788193948569	0	1.0	902.1633199999997	0.0			0	1.0	1	0	1.0	0	847	0	0	0	unknown
3	2	2	35	15519	8077	8.40883448976092	0	1.0	886.2675380000837	0.0			0	1.0	1	0	1.0	0	848	0	0	0	unknown
3	2	2	36	72339	3935	8.408880776842125	0	1.0	603.1922890001624	0.0			0	1.0	1	0	1.0	0	849	0	0	0	unknown
3	2	2	37	2069	5208	8.40892707684543	1	1.0	865.8728290001818	0.0	56.0		1	1.0	0	1	2.0	0	850	0	0	0	unknown
3	2	2	38	44273	3179	8.408973371842876	0	1.0	1515.9775299998728	0.0			0	1.0	1	0	1.0	0	851	0	0	0	unknown
3	2	2	39	1624	1189	8.409019665908998	0	1.0	2234.583294000004	0.0			0	1.0	1	0	1.0	0	852	0	0	0	unknown
3	2	2	40	70042	8403	8.409065959393047	0	1.0	1002.7891139998246	0.0			0	1.0	1	0	1.0	0	853	0	0	0	unknown
3	2	2	41	26829	1776	8.409112254157662	0	1.0	1681.5262929999335	0.0			0	1.0	2	0	1.0	0	854	0	0	0	unknown
3	2	2	42	35399	4187	8.409158549038693	0	1.0	1470.496391999859	0.0			0	1.0	1	0	1.0	0	855	0	0	0	unknown
3	2	2	43	39501	3769	8.409204845665954	0	1.0	1248.545957999795	0.0			0	1.0	1	0	1.0	0	856	0	0	0	unknown
3	2	2	44	45539	4812	8.40929732751101	0	1.0	870.7598099999813	0.0			0	1.0	1	0	1.0	0	857	0	0	0	unknown
3	2	2	45	47324	6635	8.409343629376961	0	1.0	1456.938306000211	0.0			0	1.0	1	0	1.0	0	858	0	0	0	unknown
3	2	2	46	57965	1490	8.409389920183457	1	0.0	1104.3896890000724	0.0	157.0		0	1.0	1	0	1.0	0	859	0	0	0	unknown
3	2	2	47	18140	9571	8.409436218789777	1	1.0	1234.3454230003772	0.0	280.0		0	0.0	0	1	2.0	0	860	0	0	0	unknown
3	2	2	48	26551	1386	8.40948251017835	1	1.0	1003.1277900002352	0.0	83.0	162.0	1	1.0	0	1	2.0	0	861	0	0	0	unknown
3	2	2	49	41940	5896	8.409528805757873	1	0.0	1002.4519920002604	0.0	331.0		0	1.0	1	0	1.0	0	862	0	0	0	unknown
3	2	2	50	61489	3371	8.409575099940412	0	1.0	1087.9545879997747	0.0			0	1.0	1	0	1.0	0	863	0	0	0	unknown
3	2	2	51	37149	8303	8.409621385391802	0	1.0	1428.3661780000327	0.0			0	1.0	1	0	1.0	0	864	0	0	0	unknown
3	2	2	52	61081	8258	8.409667686792089	0	0.0	1527.5105259997872	0.0			0	0.0	0	1	2.0	0	865	0	0	0	unknown
3	2	2	53	25486	2854	8.409713973640464	0	0.0	1573.341356000128	0.0			0	0.0	0	1	2.0	0	866	0	0	0	unknown
3	2	2	54	28513	5745	8.409806569805369	1	1.0	1535.9371270001247	0.0	229.0	344.0	0	0.0	0	1	2.0	0	867	0	0	0	unknown
3	2	2	55	40409	8175	8.409852856071668	1	0.0	1851.106067999808	0.0	449.0		0	1.0	1	0	1.0	0	868	0	0	0	unknown
3	2	2	56	58701	6851	8.409899153397417	0	1.0	1667.39502099972	0.0			0	1.0	1	0	1.0	0	869	0	0	0	unknown
3	2	2	57	9231	108	8.409945444320329	0	1.0	1703.6300499999015	0.0			0	1.0	1	0	1.0	0	870	1	0	1	new
3	2	2	58	14595	175	8.40999173943419	1	1.0	935.0900899999034	0.0	117.0		1	1.0	0	1	2.0	0	871	1	0	2	easy
3	2	2	59	58701	6851	8.410038041416556	1	1.0	1210.9716680001839	0.0	2.0		1	1.0	0	1	2.0	0	872	0	0	0	unknown
3	2	2	60	37149	8303	8.410084328963421	1	1.0	1014.8065510002197	0.0	8.0		1	1.0	0	1	2.0	0	873	0	0	0	unknown
3	2	2	61	61312	3663	8.410130629432388	0	1.0	1080.6119250000847	0.0			0	1.0	1	0	1.0	0	874	0	0	0	unknown
3	2	2	62	65494	1826	8.41017691825982	1	1.0	1650.1904229999127	0.0	105.0		1	1.0	0	1	2.0	0	875	0	0	0	unknown
3	2	3	1	61749	848	8.41169748059474	1	1.0	1177.433683000345	0.0	72.0		1	1.0	0	1	2.0	0	876	1	0	2	easy
3	2	3	2	7593	1143	8.411743779317476	0	1.0	783.8745710000694	0.0			0	1.0	1	0	1.0	0	877	0	0	0	unknown
3	2	3	3	50217	2020	8.411790068261325	0	1.0	1429.9535360000843	0.0			0	1.0	1	0	1.0	0	878	0	0	0	unknown
3	2	3	4	14428	3783	8.411836366285572	0	1.0	974.2411239999456	0.0			0	1.0	1	0	1.0	0	879	0	0	0	unknown
3	2	3	5	45539	4812	8.41188265720848	1	0.0	1111.8253619997631	0.0	22.0		1	0.0	1	0	1.0	0	880	0	0	0	unknown
3	2	3	6	9049	106	8.411928951158188	0	1.0	1263.734683000166	0.0			0	1.0	1	0	1.0	0	881	1	0	1	new
3	2	3	7	39129	4361	8.411975245457143	0	1.0	919.3176879998643	0.0			0	1.0	1	0	1.0	0	882	0	0	0	unknown
3	2	3	8	1122	1626	8.412021549418569	0	1.0	969.4082669998352	0.0			0	1.0	1	0	1.0	0	883	0	0	0	unknown
3	2	3	9	69423	3996	8.41206783358939	1	1.0	1820.2543239999611	0.0	568.0		0	0.0	0	1	2.0	0	884	0	0	0	unknown
3	2	3	10	56760	4292	8.412114135106094	0	1.0	766.7286070000044	0.0			0	1.0	1	0	1.0	0	885	0	0	0	unknown
3	2	3	11	5591	8706	8.41220671904739	1	0.0	1037.6061540000592	0.0	204.0		0	1.0	1	0	1.0	0	886	0	0	0	unknown
3	2	3	12	17389	1420	8.412253004848026	0	1.0	867.6380350002546	0.0			0	1.0	1	0	1.0	0	887	0	0	0	unknown
3	2	3	13	26423	9893	8.412299314863048	0	1.0	1054.548806999719	0.0			0	1.0	1	0	1.0	0	888	0	0	0	unknown
3	2	3	14	29648	7841	8.412345594726503	0	1.0	918.0841930001407	0.0			0	1.0	1	0	1.0	0	889	0	0	0	unknown
3	2	3	15	14309	1803	8.412391900317742	0	1.0	1280.1756059998297	0.0			0	1.0	1	0	1.0	0	890	0	0	0	unknown
3	2	3	16	15520	1040	8.412438176688738	1	1.0	1635.121454	0.0	232.0		0	0.0	0	1	2.0	0	891	0	0	0	unknown
3	2	3	17	39885	3284	8.412484479136765	1	0.0	1265.9478559999116	0.0	761.0		0	1.0	1	0	1.0	0	892	0	0	0	unknown
3	2	3	18	24004	1498	8.412530771340244	0	1.0	788.3600120003393	0.0			0	1.0	1	0	1.0	0	893	0	0	0	unknown
3	2	3	19	40869	2485	8.412577061215414	0	1.0	742.1044729999265	0.0			0	1.0	1	0	1.0	0	894	0	0	0	unknown
3	2	3	20	13397	9008	8.41266965714749	1	1.0	929.4894909999128	0.0	98.0	291.0	1	1.0	0	1	2.0	0	895	0	0	0	unknown
3	2	3	21	54887	9484	8.412715949467382	1	0.0	982.4381200000972	0.0	195.0	567.0	0	1.0	1	0	1.0	0	896	0	0	0	unknown
3	2	3	22	15110	1994	8.412762235966511	1	0.0	1262.9488649999985	0.0	199.0		0	1.0	1	0	1.0	0	897	0	0	0	unknown
3	2	3	23	46000	625	8.41280853759963	0	1.0	828.0659659999402	0.0			0	1.0	1	0	1.0	0	898	1	0	1	new
3	2	3	24	36159	8819	8.412854832829908	1	1.0	874.3291729997508	0.0	147.0		1	1.0	0	1	2.0	0	899	0	0	0	unknown
3	2	3	25	9419	7020	8.412901126313953	1	1.0	1219.4690669998636	0.0	426.0		0	0.0	0	1	2.0	0	900	0	0	0	unknown
3	2	3	26	42852	570	8.412947420612909	0	1.0	1050.1036829996335	0.0			0	1.0	1	0	1.0	0	901	1	1	1	new
3	2	3	27	34907	7066	8.41299370850902	0	1.0	2997.9974660000153	1.0			0	1.0	1	1	1.0	0	902	0	0	0	unknown
3	2	3	28	14846	7410	8.413039903505705	0	1.0	885.9215329998733	0.0			0	1.0	1	0	1.0	0	903	0	0	0	unknown
3	2	3	29	60744	7306	8.413086206535809	0	1.0	878.2297779998771	0.0			0	1.0	1	0	1.0	0	904	0	0	0	unknown
3	2	3	30	21293	7785	8.413178787217475	1	1.0	966.5431150001496	0.0	90.0		1	1.0	0	1	2.0	0	905	0	0	0	unknown
3	2	3	31	45910	4152	8.413225082214922	1	1.0	1838.7078259997904	0.0	148.0		1	1.0	0	1	2.0	0	906	0	0	0	unknown
3	2	3	32	53712	1645	8.413271381752566	1	1.0	1331.27604099991	0.0	682.0		0	0.0	0	1	2.0	0	907	0	0	0	unknown
3	2	3	33	22516	276	8.413317680126056	0	1.0	988.1977720001488	0.0			0	1.0	1	0	1.0	0	908	1	0	1	new
3	2	3	34	37422	1475	8.41336397174746	0	1.0	1286.5533559997857	0.0			0	1.0	1	0	1.0	0	909	0	0	0	unknown
3	2	3	35	11100	1102	8.41341026534792	0	1.0	842.0830719996957	0.0			0	1.0	1	0	1.0	0	910	0	0	0	unknown
3	2	3	36	45539	4812	8.413456555572338	1	1.0	902.390619000016	0.0	30.0	53.0	1	1.0	0	1	2.0	0	911	0	0	0	unknown
3	2	3	37	45910	4152	8.413502854295075	1	1.0	836.2416539998776	0.0	5.0	154.0	1	1.0	0	1	2.0	0	912	0	0	0	unknown
3	2	3	38	36911	485	8.413549142307604	1	1.0	850.1320440000198	0.0	83.0	131.0	1	1.0	0	1	2.0	0	913	1	0	3	easy
3	2	3	39	40841	534	8.413595442427322	0	0.0	1405.411598000228	0.0			0	0.0	0	1	2.0	0	914	1	0	1	new
3	2	3	40	48969	7561	8.413641734980047	1	0.0	1234.3840019998424	0.0	173.0	296.0	0	1.0	1	0	1.0	0	915	0	0	0	unknown
3	2	3	41	49598	7116	8.413688029744662	0	1.0	1619.7915769998872	0.0			0	1.0	1	0	1.0	0	916	0	0	0	unknown
3	2	3	42	41951	4035	8.413780618458986	0	1.0	1129.1606160002627	0.0			0	1.0	1	0	1.0	0	917	0	0	0	unknown
3	2	3	43	42952	6077	8.413826910196804	0	1.0	791.2739849998615	0.0			0	1.0	1	0	1.0	0	918	0	0	0	unknown
3	2	3	44	55099	4593	8.413873203797268	0	1.0	990.9948910003549	0.0			0	1.0	1	0	1.0	0	919	0	0	0	unknown
3	2	3	45	21751	4442	8.413919498212636	0	1.0	1343.436696000026	0.0			0	1.0	1	0	1.0	0	920	0	0	0	unknown
3	2	3	46	29760	9130	8.413965794374235	1	1.0	1119.0236420002293	0.0	137.0		1	1.0	0	1	2.0	0	921	0	0	0	unknown
3	2	3	47	61749	848	8.414012087276205	1	1.0	1410.965144000329	0.0	45.0	118.0	1	1.0	0	1	2.0	0	922	1	0	3	easy
3	2	3	48	59858	5221	8.41405838180799	0	1.0	1135.2014270000836	0.0			0	1.0	1	0	1.0	0	923	0	0	0	unknown
3	2	3	49	49048	5313	8.414104676572606	1	1.0	1022.7771069999108	0.0	133.0	163.0	1	1.0	0	1	2.0	0	924	0	0	0	unknown
3	2	3	50	50087	4893	8.414150964235889	0	1.0	1602.0773239997652	0.0			0	1.0	1	0	1.0	0	925	0	0	0	unknown
3	2	3	51	9028	105	8.414197262842208	0	1.0	1588.4879959999123	0.0			0	1.0	1	0	1.0	0	926	1	0	1	new
3	2	3	52	4838	1937	8.414243463543244	0	1.0	2245.9718049999537	0.0			0	1.0	1	0	1.0	0	927	0	0	0	unknown
3	2	3	53	16259	4900	8.414289760286918	1	1.0	1914.9675420003405	1.0	802.0		0	0.0	1	1	2.0	0	928	0	0	0	unknown
3	2	3	54	58701	6851	8.414382337592542	1	1.0	1104.1121100001872	0.0	56.0	59.0	1	1.0	0	1	2.0	0	929	0	0	0	unknown
3	2	3	55	62340	6265	8.414428643533027	0	1.0	918.9455410000846	0.0			0	1.0	1	0	1.0	0	930	0	0	0	unknown
3	2	3	56	9715	1069	8.414474934339523	1	0.0	1151.6469079997476	0.0	276.0		0	1.0	1	0	1.0	0	931	0	0	0	unknown
3	2	3	57	3177	2195	8.414521232130937	1	1.0	849.7294389999298	0.0	164.0		1	1.0	0	1	2.0	0	932	0	0	0	unknown
3	2	3	58	21169	2484	8.414567513624206	0	1.0	1178.7371949999397	0.0			0	1.0	1	0	1.0	0	933	0	0	0	unknown
3	2	3	59	30713	3699	8.414613821078094	0	0.0	1787.662000000182	0.0			0	0.0	0	1	2.0	0	934	0	0	0	unknown
3	2	3	60	25480	3940	8.414660103735516	0	1.0	1180.0972149999325	0.0			0	1.0	1	0	1.0	0	935	0	0	0	unknown
3	2	3	61	23368	7054	8.414706402458249	1	0.0	1139.9807049997435	0.0	95.0		1	0.0	1	0	1.0	0	936	0	0	0	unknown
3	2	3	62	59422	2492	8.414752698037773	0	1.0	903.2896050002819	0.0			0	1.0	1	0	1.0	0	937	0	0	0	unknown
3	2	3	63	40973	7629	8.4147989860503	1	1.0	1091.3237979993935	0.0	112.0		1	1.0	0	1	2.0	0	938	0	0	0	unknown
3	2	4	1	35464	5273	8.416358807473443	1	0.0	1417.5581480003527	0.0	247.0		0	1.0	1	0	1.0	0	939	0	0	0	unknown
3	2	4	2	4543	4467	8.416405111784115	0	1.0	1106.1471809998693	0.0			0	1.0	1	0	1.0	0	940	0	0	0	unknown
3	2	4	3	47265	5604	8.41645139141474	1	1.0	912.2449180003968	0.0	134.0		1	1.0	0	1	2.0	0	941	0	0	0	unknown
3	2	4	4	49741	4127	8.416497694910504	1	1.0	1501.979759000278	0.0	120.0		1	1.0	0	1	2.0	0	942	0	0	0	unknown
3	2	4	5	66648	5242	8.416543976753017	0	1.0	905.6014249999861	0.0			0	1.0	1	0	1.0	0	943	0	0	0	unknown
3	2	4	6	53892	742	8.416590280248782	0	1.0	889.3055899998216	0.0			0	1.0	1	0	1.0	0	944	1	0	1	new
3	2	4	7	7918	5995	8.416636565933004	0	1.0	721.7096530002891	0.0			0	1.0	1	0	1.0	0	945	0	0	0	unknown
3	2	4	8	32435	6183	8.41668286069762	0	1.0	824.7675230004462	0.0			0	1.0	1	0	1.0	0	946	0	0	0	unknown
3	2	4	9	7115	3974	8.416729160118848	0	1.0	825.7786599997416	0.0			0	1.0	1	0	1.0	0	947	0	0	0	unknown
3	2	4	10	31915	3927	8.416821650811471	0	1.0	1029.5067970000673	0.0			0	1.0	1	0	1.0	0	948	0	0	0	unknown
3	2	4	11	55827	9913	8.41686794348061	1	0.0	1184.1933499999868	0.0	874.0		0	1.0	1	0	1.0	0	949	0	0	0	unknown
3	2	4	12	34907	7066	8.41691423743032	1	1.0	837.3889929998768	0.0	47.0		1	1.0	0	1	2.0	0	950	0	0	0	unknown
3	2	4	13	61874	853	8.416960527654737	0	0.0	1583.2309970001006	0.0			0	0.0	0	1	2.0	0	951	1	1	1	new
3	2	4	14	46727	7979	8.417006818926893	0	0.0	1906.2027580002905	0.0			0	0.0	0	1	2.0	0	952	0	0	0	unknown
3	2	4	15	35726	2247	8.41705311415717	0	1.0	703.377509999882	0.0			0	1.0	1	0	1.0	0	953	0	0	0	unknown
3	2	4	16	39430	4061	8.417099410085939	1	0.0	609.7808149997945	0.0	855.0		0	1.0	1	0	1.0	0	954	0	0	0	unknown
3	2	4	17	64956	7697	8.417145709274337	1	1.0	1673.8300340002752	0.0	392.0		0	0.0	0	1	2.0	0	955	0	0	0	unknown
3	2	4	18	10719	2287	8.417192008695565	0	1.0	965.3753350003171	0.0			0	1.0	1	0	1.0	0	956	0	0	0	unknown
3	2	4	19	61448	9977	8.417284592986105	0	1.0	914.1894869999304	0.0			0	1.0	1	0	1.0	0	957	0	0	0	unknown
3	2	4	20	61860	6728	8.417330886237323	0	1.0	701.6303720001815	0.0			0	1.0	1	0	1.0	0	958	0	0	0	unknown
3	2	4	21	11196	5811	8.417377180419862	0	1.0	764.2809460003263	0.0			0	1.0	1	0	1.0	0	959	0	0	0	unknown
3	2	4	22	8580	3586	8.417423475184476	0	1.0	1703.0799569993178	0.0			0	1.0	1	0	1.0	0	960	0	0	0	unknown
3	2	4	23	11731	2584	8.417469772160985	0	1.0	1115.4926789995443	0.0			0	1.0	1	0	1.0	0	961	0	0	0	unknown
3	2	4	24	2595	5905	8.417516057146713	0	1.0	892.0440889996826	0.0			0	1.0	1	0	1.0	0	962	0	0	0	unknown
3	2	4	25	3773	6619	8.417562349000946	0	1.0	1145.9361209999768	0.0			0	1.0	1	0	1.0	0	963	0	0	0	unknown
