SUBJECT	SESSION	RUN	TRIAL	73KID	10KID	TIME	ISOLD	ISCORRECT	RT	CHANGEMIND	MEMORYRECENT	MEMORYFIRST	ISOLDCURRENT	ISCORRECTCURRENT	TOTAL1	TOTAL2	BUTTON	MISSINGDATA	trial_full	is_shared1000	is_special100	shared1000_repNum	presentation_type
8	1	1	1	46003	626	0.5035589198814705	0	1.0	926.296812001965	0.0			0	1.0	1	0	1.0	0	1	1	0	1	new
8	1	1	2	57484	5013	0.5036052248906344	0	1.0	659.3042870008503	0.0			0	1.0	1	0	1.0	0	2	0	0	0	unknown
8	1	1	3	41828	4850	0.503651505918242	0	1.0	962.7856589941075	0.0			0	1.0	1	0	1.0	0	3	0	0	0	unknown
8	1	1	4	69686	8823	0.5036978119751438	0	1.0	606.46586400253	0.0			0	1.0	1	0	1.0	0	4	0	0	0	unknown
8	1	1	5	56548	9538	0.503744096844457	0	1.0	658.0563269963022	0.0			0	1.0	1	0	1.0	0	5	0	0	0	unknown
8	1	1	6	23851	6061	0.5037904024356976	0	1.0	480.49295899545535	0.0			0	1.0	1	0	1.0	0	6	0	0	0	unknown
8	1	1	7	39892	4421	0.5038366840453818	0	1.0	820.1991199966869	0.0			0	1.0	1	0	1.0	0	7	0	0	0	unknown
8	1	1	8	51242	3858	0.5038828769465908	0	1.0	547.7184010014753	0.0			0	1.0	1	0	1.0	0	8	0	0	0	unknown
8	1	1	9	37851	8124	0.50392917660065	0	1.0	603.4545700022136	0.0			0	1.0	1	0	1.0	0	9	0	0	0	unknown
8	1	1	10	11940	4843	0.5039754706667736	0	1.0	534.900586004369	0.0			0	1.0	1	0	1.0	0	10	0	0	0	unknown
8	1	1	11	56319	7941	0.5040217560017481	0	1.0	502.31742100004334	0.0			0	1.0	1	0	1.0	0	11	0	0	0	unknown
8	1	1	12	20910	4523	0.5040680492529644	0	1.0	888.5965320005198	0.0			0	1.0	1	0	1.0	0	12	0	0	0	unknown
8	1	1	13	37466	1070	0.5041606464656069	0	1.0	543.8278240035288	0.0			0	1.0	1	0	1.0	0	13	0	0	0	unknown
8	1	1	14	40489	9588	0.504206939949654	0	1.0	505.2871649968438	0.0			0	1.0	1	0	1.0	0	14	0	0	0	unknown
8	1	1	15	34259	4623	0.5042532348306848	0	1.0	666.5944470005343	0.0			0	1.0	1	0	1.0	0	15	0	0	0	unknown
8	1	1	16	21548	3185	0.504299529013224	0	1.0	577.8939969968633	0.0			0	1.0	1	0	1.0	0	16	0	0	0	unknown
8	1	1	17	40007	4586	0.5043458234285935	0	1.0	707.3177820057026	0.0			0	1.0	1	0	1.0	0	17	0	0	0	unknown
8	1	1	18	69976	1009	0.5043921188917011	0	1.0	858.8105029994039	0.0			0	1.0	1	0	1.0	0	18	0	0	0	unknown
8	1	1	19	879	8634	0.5044384088832885	0	1.0	813.2110520018614	0.0			0	1.0	1	0	1.0	0	19	0	0	0	unknown
8	1	1	20	7579	9648	0.5044847032986581	0	1.0	685.0903560043662	0.0			0	1.0	1	0	1.0	0	20	0	0	0	unknown
8	1	1	21	64882	9425	0.504530990961939	0	1.0	657.29761300463	0.0			0	1.0	1	0	1.0	0	21	0	0	0	unknown
8	1	1	22	64992	1344	0.504577292711474	0	1.0	602.8440610025427	0.0			0	1.0	1	0	1.0	0	22	0	0	0	unknown
8	1	1	23	54123	7441	0.5046698760706931	0	1.0	722.769984997285	0.0			0	1.0	1	0	1.0	0	23	0	0	0	unknown
8	1	1	24	66060	3902	0.5047161736292765	0	0.0	2402.8429649988534	0.0			0	0.0	0	1	2.0	0	24	0	0	0	unknown
8	1	1	25	72499	8795	0.5047624619910493	0	1.0	1013.2962650022818	0.0			0	1.0	1	0	1.0	0	25	0	0	0	unknown
8	1	1	26	38500	1840	0.5048087667673826	0	1.0	802.3355289988102	0.0			0	1.0	1	0	1.0	0	26	0	0	0	unknown
8	1	1	27	20279	1356	0.5048550580395385	0	1.0	1040.3284339990932	0.0			0	1.0	1	0	1.0	0	27	0	0	0	unknown
8	1	1	28	30298	5506	0.5049013536190614	0	1.0	627.9005339965806	0.0			0	1.0	1	0	1.0	0	28	0	0	0	unknown
8	1	1	29	48618	666	0.5049476391868665	0	1.0	1016.1324049986432	0.0			0	1.0	1	0	1.0	0	29	1	0	1	new
8	1	1	30	58177	8240	0.5049939398886635	0	1.0	859.5120760001009	0.0			0	1.0	1	0	1.0	0	30	0	0	0	unknown
8	1	1	31	25495	7232	0.505040228832513	0	1.0	1142.313699994702	0.0			0	1.0	1	0	1.0	0	31	0	0	0	unknown
8	1	1	32	1779	5691	0.5050865286029875	0	1.0	992.2482549955021	0.0			0	1.0	1	0	1.0	0	32	0	0	0	unknown
8	1	1	33	34944	6661	0.5051327185938134	0	1.0	809.7332760007703	0.0			0	1.0	1	0	1.0	0	33	0	0	0	unknown
8	1	1	34	8842	2400	0.5051790159195662	0	1.0	845.7902230002218	0.0			0	1.0	1	0	1.0	0	34	0	0	0	unknown
8	1	1	35	25910	2252	0.5052716080099344	0	1.0	632.5920369999949	0.0			0	1.0	1	0	1.0	0	35	0	0	0	unknown
8	1	1	36	44981	612	0.5053179021924734	0	1.0	684.9200680007925	0.0			0	1.0	1	0	1.0	0	36	1	0	1	new
8	1	1	37	72724	1609	0.5053641960257664	0	1.0	614.0388909989268	0.0			0	1.0	1	0	1.0	0	37	0	0	0	unknown
8	1	1	38	31950	3579	0.5054104824084787	0	1.0	518.8441300051636	0.0			0	1.0	1	0	1.0	0	38	0	0	0	unknown
8	1	1	39	3887	1703	0.5054567850893363	0	1.0	741.8814719931106	0.0			0	1.0	1	0	1.0	0	39	0	0	0	unknown
8	1	1	40	31577	9976	0.5055030779913067	0	1.0	702.2765369983972	0.0			0	1.0	1	0	1.0	0	40	0	0	0	unknown
8	1	1	41	14325	5770	0.5055493699619547	0	1.0	457.2001260021352	0.0			0	1.0	1	0	1.0	0	41	0	0	0	unknown
8	1	1	42	11606	8748	0.5055956670548766	0	1.0	426.28979699657066	0.0			0	1.0	1	0	1.0	0	42	0	0	0	unknown
8	1	1	43	63754	9202	0.5056419523898512	0	1.0	704.6526899939636	0.0			0	1.0	1	0	1.0	0	43	0	0	0	unknown
8	1	1	44	10903	3123	0.5056882500648499	0	1.0	628.2306089997292	0.0			0	1.0	1	0	1.0	0	44	0	0	0	unknown
8	1	1	45	32626	436	0.5057345482055097	0	1.0	645.5828149992158	0.0			0	1.0	1	0	1.0	0	45	1	0	1	new
8	1	1	46	40007	4586	0.505827136687003	1	1.0	1402.2229839974896	0.0	28.0		1	1.0	0	1	2.0	0	46	0	0	0	unknown
8	1	1	47	9735	1499	0.5058734313352033	0	1.0	702.311175999057	0.0			0	1.0	1	0	1.0	0	47	0	0	0	unknown
8	1	1	48	1057	2872	0.5059197230730205	0	1.0	1011.0986860017874	0.0			0	1.0	1	0	1.0	0	48	0	0	0	unknown
8	1	1	49	17671	9173	0.5059660215629264	0	1.0	550.1081300026271	0.0			0	1.0	1	0	1.0	0	49	0	0	0	unknown
8	1	1	50	17772	2665	0.5060123136499896	0	1.0	935.911524000403	0.0			0	1.0	1	0	1.0	0	50	0	0	0	unknown
8	1	1	51	17152	1045	0.5060586119070649	0	1.0	635.6578189952417	0.0			0	1.0	1	0	1.0	0	51	0	0	0	unknown
8	1	1	52	20060	1974	0.5061049025971442	0	1.0	1328.3365219976984	0.0			0	1.0	1	0	1.0	0	52	0	0	0	unknown
8	1	1	53	18227	2268	0.506151194917038	0	1.0	633.4715419943677	0.0			0	1.0	1	0	1.0	0	53	0	0	0	unknown
8	1	1	54	15628	7771	0.5061974896816536	0	1.0	866.1353120041895	0.0			0	1.0	1	0	1.0	0	54	0	0	0	unknown
8	1	1	55	51638	6336	0.506290077813901	0	1.0	644.991076005681	0.0			0	1.0	1	0	1.0	0	55	0	0	0	unknown
8	1	1	56	53053	727	0.5063363715307787	0	1.0	1045.2271909962292	0.0			0	1.0	1	0	1.0	0	56	1	1	1	new
8	1	1	57	4931	40	0.5063825629185885	0	1.0	630.2465900007519	0.0			0	1.0	1	0	1.0	0	57	1	0	1	new
8	1	1	58	47302	6000	0.5064288582652807	0	1.0	845.3397909979685	0.0			0	1.0	1	0	1.0	0	58	0	0	0	unknown
8	1	1	59	31668	7046	0.5064751574536785	0	1.0	862.4534839982515	0.0			0	1.0	1	0	1.0	0	59	0	0	0	unknown
8	1	1	60	21952	1607	0.5065214475616812	0	1.0	925.3565450053427	0.0			0	1.0	1	0	1.0	0	60	0	0	0	unknown
8	1	1	61	47899	2132	0.5065677415113896	0	1.0	680.2207979999366	0.0			0	1.0	1	0	1.0	0	61	0	0	0	unknown
8	1	1	62	27166	5352	0.506614040932618	0	1.0	746.9119099987438	0.0			0	1.0	1	0	1.0	0	62	0	0	0	unknown
8	1	1	63	39227	2514	0.5066603265004233	0	1.0	1009.9743389946524	0.0			0	1.0	1	0	1.0	0	63	0	0	0	unknown
8	1	2	1	51210	5730	0.5081634297966957	0	1.0	846.8118269956902	0.0			0	1.0	1	0	1.0	0	64	0	0	0	unknown
8	1	2	2	10110	4135	0.5082097370177507	0	1.0	632.178362000559	0.0			0	1.0	1	0	1.0	0	65	0	0	0	unknown
8	1	2	3	63928	5169	0.5082560197915881	0	1.0	604.9749220037484	0.0			0	1.0	1	0	1.0	0	66	0	0	0	unknown
8	1	2	4	53459	5821	0.5083023175830022	0	1.0	584.7857129992917	0.0			0	1.0	1	0	1.0	0	67	0	0	0	unknown
8	1	2	5	25674	8842	0.5083485996583476	0	1.0	567.0209720046842	0.0			0	1.0	1	0	1.0	0	68	0	0	0	unknown
8	1	2	6	10110	4135	0.508394899778068	1	1.0	1086.80624099361	0.0	3.0		1	1.0	0	1	2.0	0	69	0	0	0	unknown
8	1	2	7	58114	4990	0.5084411891875787	0	1.0	669.8110209981678	0.0			0	1.0	1	0	1.0	0	70	0	0	0	unknown
8	1	2	8	48922	9955	0.5084874825552105	0	1.0	714.7508830021252	0.0			0	1.0	1	0	1.0	0	71	0	0	0	unknown
8	1	2	9	37153	7331	0.5085337839554995	0	1.0	827.4481240005117	0.0			0	1.0	1	0	1.0	0	72	0	0	0	unknown
8	1	2	10	3590	3470	0.5085800677770748	0	1.0	719.4187299974145	0.0			0	1.0	1	0	1.0	0	73	0	0	0	unknown
8	1	2	11	60886	9913	0.5086263704579324	0	1.0	1044.7730740052064	0.0			0	1.0	1	0	1.0	0	74	0	0	0	unknown
8	1	2	12	16777	3207	0.5087189592886716	0	1.0	741.6107320023002	0.0			0	1.0	1	0	1.0	0	75	0	0	0	unknown
8	1	2	13	49174	5799	0.5087652541697025	0	1.0	622.4428700006683	0.0			0	1.0	1	0	1.0	0	76	0	0	0	unknown
8	1	2	14	23796	4068	0.50881144835148	0	1.0	809.1350440008681	0.0			0	1.0	1	0	1.0	0	77	0	0	0	unknown
8	1	2	15	2878	2204	0.5088577440474182	0	1.0	1503.3140710002044	0.0			0	1.0	1	0	1.0	0	78	0	0	0	unknown
8	1	2	16	5038	7081	0.5089040357852354	0	1.0	2126.698767002381	0.0			0	1.0	1	0	1.0	0	79	0	0	0	unknown
8	1	2	17	60051	3632	0.5089503348572179	0	1.0	985.9554779977769	0.0			0	1.0	1	0	1.0	0	80	0	0	0	unknown
8	1	2	18	28475	3444	0.5089966288069263	0	1.0	650.3440939995926	0.0			0	1.0	1	0	1.0	0	81	0	0	0	unknown
8	1	2	19	71941	2840	0.5090429193805903	0	1.0	880.0953789977939	0.0			0	1.0	1	0	1.0	0	82	0	0	0	unknown
8	1	2	20	60709	1538	0.5090892150765284	0	1.0	711.6324650050956	0.0			0	1.0	1	0	1.0	0	83	0	0	0	unknown
8	1	2	21	11580	8951	0.5091818020446226	0	1.0	756.9664429975091	0.0			0	1.0	1	0	1.0	0	84	0	0	0	unknown
8	1	2	22	6963	8009	0.5092280975077301	0	1.0	965.7162629955565	0.0			0	1.0	1	0	1.0	0	85	0	0	0	unknown
8	1	2	23	20602	5772	0.5092743901768699	0	1.0	655.8343220021925	0.0			0	1.0	1	0	1.0	0	86	0	0	0	unknown
8	1	2	24	61912	5200	0.5093206841265782	0	1.0	1685.4937489988515	0.0			0	1.0	1	0	1.0	0	87	0	0	0	unknown
8	1	2	25	22035	7984	0.509366980753839	0	1.0	886.6429560002871	0.0			0	1.0	1	0	1.0	0	88	0	0	0	unknown
8	1	2	26	59787	9865	0.5094132670201361	0	1.0	1016.3616939971688	0.0			0	1.0	1	0	1.0	0	89	0	0	0	unknown
8	1	2	27	57165	7367	0.5094595699338242	0	1.0	805.6575549999253	0.0			0	1.0	1	0	1.0	0	90	0	0	0	unknown
8	1	2	28	32626	436	0.5095058645820245	1	1.0	1203.792941996653	0.0	45.0		1	1.0	0	1	2.0	0	91	1	0	2	easy
8	1	2	29	58691	3014	0.5095521595794708	0	1.0	881.7813319983543	0.0			0	1.0	1	0	1.0	0	92	0	0	0	unknown
8	1	2	30	56815	3569	0.5095984523650258	0	1.0	865.585530998942	0.0			0	1.0	1	0	1.0	0	93	0	0	0	unknown
8	1	2	31	66576	6871	0.509691039682366	0	1.0	745.6349130006856	0.0			0	1.0	1	0	1.0	0	94	0	0	0	unknown
8	1	2	32	18704	4263	0.5097373314201831	0	1.0	1079.442330999882	0.0			0	1.0	1	0	1.0	0	95	0	0	0	unknown
8	1	2	33	61596	3694	0.5097836288623511	0	1.0	1155.8880589946057	0.0			0	1.0	1	0	1.0	0	96	0	0	0	unknown
8	1	2	34	58946	5322	0.5098299138480797	0	1.0	1112.7347489964448	0.0			0	1.0	1	0	1.0	0	97	0	0	0	unknown
8	1	2	35	20508	4061	0.5098762109410017	0	1.0	883.6111180062289	0.0			0	1.0	1	0	1.0	0	98	0	0	0	unknown
8	1	2	36	72642	7985	0.5099225027952343	0	1.0	870.6953219952993	0.0			0	1.0	2	0	1.0	0	99	0	0	0	unknown
8	1	2	37	45819	6041	0.5099688088521361	0	1.0	1962.5410639928305	0.0			0	1.0	1	0	1.0	0	100	0	0	0	unknown
8	1	2	38	60109	6142	0.5100150941871106	0	1.0	1004.2196520007564	0.0			0	1.0	1	0	1.0	0	101	0	0	0	unknown
8	1	2	39	46478	6843	0.5100613950053229	0	1.0	856.9898109999485	0.0			0	1.0	1	0	1.0	0	102	0	0	0	unknown
8	1	2	40	1149	7442	0.510107678710483	0	1.0	756.8314689997351	0.0			0	1.0	1	0	1.0	0	103	0	0	0	unknown
8	1	2	41	55564	1108	0.5102001747582107	0	1.0	704.5959020033479	0.0			0	1.0	1	0	1.0	0	104	0	0	0	unknown
8	1	2	42	51441	9936	0.5102464741794392	0	1.0	821.1500309989788	0.0			0	1.0	1	0	1.0	0	105	0	0	0	unknown
8	1	2	43	64143	2757	0.5102927654515951	0	1.0	1203.1042000016896	0.0			0	1.0	1	0	1.0	0	106	0	0	0	unknown
8	1	2	44	55447	9658	0.5103390617296099	0	1.0	627.8049379980075	0.0			0	1.0	1	0	1.0	0	107	0	0	0	unknown
8	1	2	45	63928	5169	0.5103853542823344	1	0.0	2629.913284996292	0.0	41.0		1	0.0	1	0	1.0	0	108	0	0	0	unknown
8	1	2	46	52913	3376	0.5104316440410912	0	1.0	809.4936979978229	0.0			0	1.0	1	0	1.0	0	109	0	0	0	unknown
8	1	2	47	63060	7287	0.5104779378743842	0	1.0	1121.2924499996006	0.0			0	1.0	1	0	1.0	0	110	0	0	0	unknown
8	1	2	48	49358	5363	0.5105242360150442	0	1.0	812.1971340005985	0.0			0	1.0	1	0	1.0	0	111	0	0	0	unknown
8	1	2	49	16562	5834	0.510570524027571	0	1.0	803.4789759985869	0.0			0	1.0	1	0	1.0	0	112	0	0	0	unknown
8	1	2	50	36167	6448	0.5106168187921866	0	1.0	745.3600549997644	0.0			0	1.0	1	0	1.0	0	113	0	0	0	unknown
8	1	2	51	11460	4186	0.5106631211237981	0	1.0	959.2527909990168	0.0			0	1.0	1	0	1.0	0	114	0	0	0	unknown
8	1	2	52	61978	9715	0.5107094151899217	0	1.0	1029.7947359940736	0.0			0	1.0	1	0	1.0	0	115	0	0	0	unknown
8	1	2	53	31362	1430	0.5108019983163103	0	1.0	1203.1700759980595	0.0			0	1.0	1	0	1.0	0	116	0	0	0	unknown
8	1	2	54	62883	9621	0.5108482972718775	0	1.0	991.8709060002584	0.0			0	1.0	1	0	1.0	0	117	0	0	0	unknown
8	1	2	55	48701	7112	0.5108945827232673	0	1.0	1582.6083989959443	0.0			0	1.0	1	0	1.0	0	118	0	0	0	unknown
8	1	2	56	61044	9845	0.5109408851712942	0	1.0	1516.0152250027747	0.0			0	1.0	1	0	1.0	0	119	0	0	0	unknown
8	1	2	57	60367	7473	0.5109871722524985	0	1.0	984.3828299999585	0.0			0	1.0	1	0	1.0	0	120	0	0	0	unknown
8	1	2	58	6432	60	0.5110334738856182	0	1.0	1177.7733269991584	0.0			0	1.0	1	0	1.0	0	121	1	0	1	new
8	1	2	59	64143	2757	0.5110797706292942	1	1.0	1363.9941750006983	0.0	15.0		1	1.0	0	1	2.0	0	122	0	0	0	unknown
8	1	2	60	17557	2704	0.511126062599942	0	1.0	902.4958480003987	0.0			0	1.0	1	0	1.0	0	123	0	0	0	unknown
8	1	2	61	879	8634	0.5111723595764487	1	1.0	1019.143391000398	0.0	104.0		1	1.0	0	1	2.0	0	124	0	0	0	unknown
8	1	2	62	10499	4900	0.511218644096516	0	1.0	758.467601997836	0.0			0	1.0	1	0	1.0	0	125	0	0	0	unknown
8	1	3	1	38460	7336	0.5128913866356015	0	1.0	918.5162069989021	0.0			0	1.0	1	0	1.0	0	126	0	0	0	unknown
8	1	3	2	70336	970	0.5129376895492896	0	0.0	1755.7085099979304	0.0			0	0.0	0	1	2.0	0	127	1	0	1	new
8	1	3	3	7181	4229	0.5129839720902964	0	0.0	1602.99286100053	0.0			0	0.0	0	1	2.0	0	128	0	0	0	unknown
8	1	3	4	68726	3770	0.5130302762845531	0	1.0	847.0498310052789	0.0			0	1.0	1	0	1.0	0	129	0	0	0	unknown
8	1	3	5	872	3284	0.5130765599897131	0	1.0	942.481439000403	0.0			0	1.0	1	0	1.0	0	130	0	0	0	unknown
8	1	3	6	25587	6316	0.513122871867381	0	1.0	585.5947859963634	0.0			0	1.0	1	0	1.0	0	131	0	0	0	unknown
8	1	3	7	8271	1266	0.5131691556889563	0	1.0	774.0544070038595	0.0			0	1.0	1	0	1.0	0	132	0	0	0	unknown
8	1	3	8	36577	479	0.5132154538296163	0	1.0	721.0169199970551	0.0			0	1.0	1	0	1.0	0	133	1	0	1	new
8	1	3	9	68567	6277	0.5132617419585584	0	1.0	1036.853011995845	0.0			0	1.0	1	0	1.0	0	134	0	0	0	unknown
8	1	3	10	10982	9754	0.5133080452214926	0	1.0	1048.7957180012015	0.0			0	1.0	1	0	1.0	0	135	0	0	0	unknown
8	1	3	11	43891	7300	0.5134006285807117	0	1.0	770.1423999969846	0.0			0	1.0	1	0	1.0	0	136	0	0	0	unknown
8	1	3	12	49546	1104	0.5134469100739806	0	0.0	2203.9168859992055	0.0			0	0.0	0	1	2.0	0	137	0	0	0	unknown
8	1	3	13	54443	7313	0.5134932151995599	0	1.0	1025.9823750020587	0.0			0	1.0	1	0	1.0	0	138	0	0	0	unknown
8	1	3	14	34928	3250	0.5135394996032118	0	1.0	2502.692093003134	0.0			0	1.0	1	0	1.0	0	139	0	0	0	unknown
8	1	3	15	49191	6726	0.5135857955319806	0	1.0	1307.7602079938515	0.0			0	1.0	1	0	1.0	0	140	0	0	0	unknown
8	1	3	16	23192	8054	0.5136320946039631	0	1.0	820.8401930023683	0.0			0	1.0	1	0	1.0	0	141	0	0	0	unknown
8	1	3	17	59528	7613	0.5136783906491473	0	1.0	1255.887920000532	0.0			0	1.0	1	0	1.0	0	142	0	0	0	unknown
8	1	3	18	24912	6236	0.5137246842496097	0	1.0	861.7439789959462	0.0			0	1.0	1	0	1.0	0	143	0	0	0	unknown
8	1	3	19	51739	2259	0.5137709740083664	0	1.0	717.4427610007115	0.0			0	1.0	1	0	1.0	0	144	0	0	0	unknown
8	1	3	20	56809	3968	0.5138172708684579	0	1.0	742.1469370019622	0.0			0	1.0	1	0	1.0	0	145	0	0	0	unknown
8	1	3	21	62662	2980	0.5138634619070217	0	1.0	836.7468199940049	0.0			0	1.0	1	0	1.0	0	146	0	0	0	unknown
8	1	3	22	52427	9718	0.5139097588835284	0	1.0	835.0995440050609	0.0			0	1.0	1	0	1.0	0	147	0	0	0	unknown
8	1	3	23	17900	1550	0.5139560539973899	0	1.0	775.2414170026894	0.0			0	1.0	1	0	1.0	0	148	0	0	0	unknown
8	1	3	24	62662	2980	0.5140023455023764	1	1.0	940.6303289943024	0.0	2.0		1	1.0	0	1	2.0	0	149	0	0	0	unknown
8	1	3	25	17267	6274	0.5140949402702972	0	1.0	710.0350489999984	0.0			0	1.0	1	0	1.0	0	150	0	0	0	unknown
8	1	3	26	16796	6666	0.5141412349184975	0	1.0	817.9681039982823	0.0			0	1.0	1	0	1.0	0	151	0	0	0	unknown
8	1	3	27	61534	3580	0.5141875244444236	0	1.0	652.678056001605	0.0			0	1.0	1	0	1.0	0	152	0	0	0	unknown
8	1	3	28	57047	791	0.5142338187433779	0	1.0	1419.1748719968018	0.0			0	1.0	1	0	1.0	0	153	1	0	1	new
8	1	3	29	15628	7771	0.5142801130423322	1	0.0	979.746785997122	0.0	99.0		1	0.0	1	0	1.0	0	154	0	0	0	unknown
8	1	3	30	72642	7985	0.5143264121143147	1	0.0	942.0737379987257	0.0	55.0		1	0.0	1	0	1.0	0	155	0	0	0	unknown
8	1	3	31	19866	5651	0.5143726977985352	0	1.0	648.5114630049793	0.0			0	1.0	1	0	1.0	0	156	0	0	0	unknown
8	1	3	32	7694	4786	0.5144189931452274	0	1.0	1002.7231460044276	0.0			0	1.0	1	0	1.0	0	157	0	0	0	unknown
8	1	3	33	19267	5910	0.5144652870949357	0	1.0	819.1255600031581	0.0			0	1.0	1	0	1.0	0	158	0	0	0	unknown
8	1	3	34	48811	6588	0.5145115867489948	0	1.0	714.5777959958649	0.0			0	1.0	1	0	1.0	0	159	0	0	0	unknown
8	1	3	35	70211	5925	0.5145578786032274	0	1.0	1583.4164159969075	0.0			0	1.0	1	0	1.0	0	160	0	0	0	unknown
8	1	3	36	71442	5699	0.5146504694130271	0	1.0	690.1061309981742	0.0			0	1.0	1	0	1.0	0	161	0	0	0	unknown
8	1	3	37	35563	3719	0.5146967630134895	0	1.0	1103.239306001342	0.0			0	1.0	1	0	1.0	0	162	0	0	0	unknown
8	1	3	38	54007	5440	0.5147430510260164	0	1.0	1066.490976998466	0.0			0	1.0	1	0	1.0	0	163	0	0	0	unknown
8	1	3	39	15105	9470	0.5147893448593094	0	1.0	880.2427850023378	0.0			0	1.0	1	0	1.0	0	164	0	0	0	unknown
8	1	3	40	36669	1330	0.5148356417194008	0	1.0	761.376818998542	0.0			0	1.0	1	0	1.0	0	165	0	0	0	unknown
8	1	3	41	46715	8935	0.514881940325722	0	1.0	1045.5458650030776	0.0			0	1.0	1	0	1.0	0	166	0	0	0	unknown
8	1	3	42	7660	80	0.5149282321799546	0	1.0	1341.5998429991305	0.0			0	1.0	1	0	1.0	0	167	1	0	1	new
8	1	3	43	65391	2159	0.5149745292728766	0	1.0	1103.144724998856	0.0			0	1.0	1	0	1.0	0	168	0	0	0	unknown
8	1	3	44	39386	1866	0.5150208154227583	0	1.0	1585.2623540049535	0.0			0	1.0	1	0	1.0	0	169	0	0	0	unknown
8	1	3	45	61539	5965	0.5151134056504815	0	1.0	1171.2528250063767	0.0			0	1.0	1	0	1.0	0	170	0	0	0	unknown
8	1	3	46	34475	7512	0.5151596107752993	0	1.0	802.108183997916	0.0			0	1.0	1	0	1.0	0	171	0	0	0	unknown
8	1	3	47	47464	4025	0.5152058977400884	0	1.0	718.0468770020525	0.0			0	1.0	1	0	1.0	0	172	0	0	0	unknown
8	1	3	48	47464	4025	0.5152521911077201	1	1.0	843.2856750005157	0.0	0.0		1	1.0	0	1	2.0	0	173	0	0	0	unknown
8	1	3	49	30374	403	0.5152984930900856	0	1.0	2417.848017001233	0.0			0	1.0	1	0	1.0	0	174	1	0	1	new
8	1	3	50	62281	1665	0.51534478564281	0	1.0	1103.36693499994	0.0			0	1.0	1	0	1.0	0	175	0	0	0	unknown
8	1	3	51	9491	9667	0.5153910763328894	0	1.0	759.452512997086	0.0			0	1.0	1	0	1.0	0	176	0	0	0	unknown
8	1	3	52	25960	340	0.5154373734258115	0	1.0	1178.3871699954032	0.0			0	1.0	1	0	1.0	0	177	1	0	1	new
8	1	3	53	69979	6692	0.5154836702859029	0	1.0	1403.2062469996163	0.0			0	1.0	1	0	1.0	0	178	0	0	0	unknown
8	1	3	54	58556	3824	0.5155762484064325	0						0		0	0		0	179	0	0	0	unknown
8	1	3	55	63485	1160	0.51562255108729	0	1.0	802.1183719974943	0.0			0	1.0	1	0	1.0	0	180	0	0	0	unknown
8	1	3	56	31668	7046	0.5156688489951193	1	1.0	3011.208745003387	0.0	121.0		1	1.0	0	1	2.0	0	181	0	0	0	unknown
8	1	3	57	69487	7852	0.5157151379389688	0	1.0	904.4896369960042	0.0			0	1.0	1	0	1.0	0	182	0	0	0	unknown
8	1	3	58	69767	5291	0.5157614346826449	0	1.0	862.0726219960488	0.0			0	1.0	1	0	1.0	0	183	0	0	0	unknown
8	1	3	59	65604	3595	0.5158077193191275	0	1.0	959.3449640015024	0.0			0	1.0	1	0	1.0	0	184	0	0	0	unknown
8	1	3	60	8412	2325	0.5158540208358317	0	1.0	745.3037850063992	0.0			0	1.0	1	0	1.0	0	185	0	0	0	unknown
8	1	3	61	9560	4285	0.515900315484032	0	1.0	602.5860439985992	0.0			0	1.0	1	0	1.0	0	186	0	0	0	unknown
8	1	3	62	53758	8561	0.5159466126933693	0	1.0	741.0393429963733	0.0			0	1.0	1	0	1.0	0	187	0	0	0	unknown
8	1	3	63	58691	3014	0.5159928952343761	1	0.0	909.7291969956132	0.0	95.0		1	0.0	1	0	1.0	0	188	0	0	0	unknown
8	1	4	1	30374	403	0.5176598598482087	1	1.0	1053.4747029960272	0.0	14.0		1	1.0	0	1	2.0	0	189	1	0	2	easy
8	1	4	2	44981	612	0.517706157406792	1	0.0	684.5832620019792	0.0	153.0		1	0.0	1	0	1.0	0	190	1	0	2	easy
8	1	4	3	28535	4687	0.5177524478640407	0	1.0	937.0433349977249	0.0			0	1.0	1	0	1.0	0	191	0	0	0	unknown
8	1	4	4	64882	9425	0.517798752291128	1	0.0	926.4495079987681	0.0	170.0		1	0.0	1	0	1.0	0	192	0	0	0	unknown
8	1	4	5	41480	7750	0.5178450347157195	0	1.0	902.7897749983822	0.0			0	1.0	1	0	1.0	0	193	0	0	0	unknown
8	1	4	6	58558	3194	0.5178913382114843	0	0.0	1717.3135869961695	0.0			0	0.0	0	1	2.0	0	194	0	0	0	unknown
8	1	4	7	62265	2628	0.5179376258747652	0	1.0	872.4073720004526	0.0			0	1.0	1	0	1.0	0	195	0	0	0	unknown
8	1	4	8	21353	9722	0.5179839301854372	0	1.0	806.1121800055843	0.0			0	1.0	1	0	1.0	0	196	0	0	0	unknown
8	1	4	9	53758	8561	0.5180302100488916	1	1.0	948.8441350040376	0.0	9.0		1	1.0	0	1	2.0	0	197	0	0	0	unknown
8	1	4	10	42426	2670	0.5180765191325917	0	1.0	1005.1062850034212	0.0			0	1.0	1	0	1.0	0	198	0	0	0	unknown
8	1	4	11	69236	5109	0.5181691003963351	0	1.0	822.6499800002784	0.0			0	1.0	1	0	1.0	0	199	0	0	0	unknown
8	1	4	12	48198	3457	0.5182153875939548	0	0.0	1548.1824570015303	0.0			0	0.0	0	1	2.0	0	200	0	0	0	unknown
8	1	4	13	29038	9972	0.5182616864331065	0	1.0	1089.2793290040572	0.0			0	1.0	1	0	1.0	0	201	0	0	0	unknown
8	1	4	14	65415	899	0.5183079736307263	0	1.0	893.4662129977368	0.0			0	1.0	1	0	1.0	0	202	1	0	1	new
8	1	4	15	16938	5741	0.5183542780578136	0	1.0	882.5338659953559	0.0			0	1.0	1	0	1.0	0	203	0	0	0	unknown
8	1	4	16	29128	3831	0.5184005701448768	0	1.0	1264.5527980057523	0.0			0	1.0	1	0	1.0	0	204	0	0	0	unknown
8	1	4	17	43711	3799	0.518446861882694	0	1.0	1005.4845160047988	0.0			0	1.0	1	0	1.0	0	205	0	0	0	unknown
8	1	4	18	52700	2517	0.5184931590920314	0	1.0	748.0156550009269	0.0			0	1.0	1	0	1.0	0	206	0	0	0	unknown
8	1	4	19	7602	6504	0.5185394427971914	0	1.0	724.5563329997821	0.0			0	1.0	1	0	1.0	0	207	0	0	0	unknown
8	1	4	20	70629	3548	0.5186320398934186	0	1.0	801.6700230000424	0.0			0	1.0	1	0	1.0	0	208	0	0	0	unknown
8	1	4	21	19628	6399	0.5186783301178365	0	1.0	1302.933473001758	0.0			0	1.0	1	0	1.0	0	209	0	0	0	unknown
8	1	4	22	42376	3095	0.518724622670561	0	1.0	685.2369709959021	0.0			0	1.0	1	0	1.0	0	210	0	0	0	unknown
8	1	4	23	26590	9021	0.5187709180172532	0	1.0	843.5862180049297	0.0			0	1.0	1	0	1.0	0	211	0	0	0	unknown
8	1	4	24	50036	9121	0.518817214295268	0	1.0	769.3983339995611	0.0			0	1.0	1	0	1.0	0	212	0	0	0	unknown
8	1	4	25	69487	7852	0.5188635068479925	1	0.0	903.3344440031215	0.0	30.0		1	0.0	1	0	1.0	0	213	0	0	0	unknown
8	1	4	26	55564	1108	0.5189097067341208	1	1.0	950.3906509999068	0.0	109.0		1	1.0	0	1	2.0	0	214	0	0	0	unknown
8	1	4	27	49139	8441	0.5189559994032606	0	1.0	872.9160900038551	0.0			0	1.0	1	0	1.0	0	215	0	0	0	unknown
8	1	4	28	28805	9826	0.5190022955648601	0	1.0	886.2763049983186	0.0			0	1.0	1	0	1.0	0	216	0	0	0	unknown
8	1	4	29	12441	7559	0.5190485906787216	0	1.0	771.9112199993106	0.0			0	1.0	1	0	1.0	0	217	0	0	0	unknown
8	1	4	30	59438	2880	0.5191411754349246	0	1.0	1069.2740840022452	0.0			0	1.0	1	0	1.0	0	218	0	0	0	unknown
8	1	4	31	23404	9949	0.5191874620504677	0	1.0	802.7596850006374	0.0			0	1.0	1	0	1.0	0	219	0	0	0	unknown
8	1	4	32	54123	7441	0.5192337619373574	1	1.0	1678.2662190016708	0.0	196.0		1	1.0	0	1	2.0	0	220	0	0	0	unknown
8	1	4	33	61696	4751	0.5192800625227391	0	1.0	1413.2739650012809	0.0			0	1.0	1	0	1.0	0	221	0	0	0	unknown
8	1	4	34	46468	5679	0.5193263528635725	0	1.0	1004.3140970010426	0.0			0	1.0	1	0	1.0	0	222	0	0	0	unknown
8	1	4	35	59787	9865	0.5193726384313777	1	1.0	1039.0479580019019	0.0	133.0		1	1.0	0	1	2.0	0	223	0	0	0	unknown
8	1	4	36	67929	1645	0.5194189432077109	0	1.0	802.9174059993238	0.0			0	1.0	1	0	1.0	0	224	0	0	0	unknown
8	1	4	37	8271	1266	0.5194652307545766	1	1.0	1019.5732569991378	0.0	92.0		1	1.0	0	1	2.0	0	225	0	0	0	unknown
8	1	4	38	70317	1549	0.5195115261012688	0	1.0	1205.1944199993159	0.0			0	1.0	1	0	1.0	0	226	0	0	0	unknown
8	1	4	39	7181	4229	0.5195578201673924	1	1.0	774.7501870035194	0.0	98.0		1	1.0	0	1	2.0	0	227	0	0	0	unknown
8	1	4	40	10805	9562	0.519604118540883	0	1.0	775.912221004546	0.0			0	1.0	1	0	1.0	0	228	0	0	0	unknown
8	1	4	41	18224	6187	0.5196967059746384	0	1.0	1157.0549690004555	0.0			0	1.0	1	0	1.0	0	229	0	0	0	unknown
8	1	4	42	11606	8748	0.5197430020198225	1	1.0	1107.7377990004607	0.0	187.0		1	1.0	0	1	2.0	0	230	0	0	0	unknown
8	1	4	43	14990	8374	0.5197892941068857	0	1.0	914.7085469958257	0.0			0	1.0	1	0	1.0	0	231	0	0	0	unknown
8	1	4	44	42172	559	0.5198355833999811	0	1.0	1502.640947997861	0.0			0	1.0	1	0	1.0	0	232	1	0	1	new
8	1	4	45	5603	53	0.5198818810749799	0	1.0	829.7725340016768	0.0			0	1.0	1	0	1.0	0	233	1	0	1	new
8	1	4	46	9036	8043	0.5199281707173213	0	1.0	778.9277089977985	0.0			0	1.0	1	0	1.0	0	234	0	0	0	unknown
8	1	4	47	26389	8972	0.5199744718847796	0	1.0	667.8217040025629	0.0			0	1.0	1	0	1.0	0	235	0	0	0	unknown
8	1	4	48	46103	5860	0.5200207631569355	0	1.0	924.5299160029389	0.0			0	1.0	1	0	1.0	0	236	0	0	0	unknown
8	1	4	49	10170	3756	0.5200670552439987	0	1.0	740.0119869998889	0.0			0	1.0	1	0	1.0	0	237	0	0	0	unknown
8	1	4	50	14703	4734	0.5201133552473038	0	1.0	903.8632930023597	0.0			0	1.0	1	0	1.0	0	238	0	0	0	unknown
8	1	4	51	11029	8985	0.5201596480328589	0	1.0	1505.3786129938087	0.0			0	1.0	1	0	1.0	0	239	0	0	0	unknown
8	1	4	52	70480	5862	0.5202058439608663	0	1.0	1372.3301290010568	0.0			0	1.0	1	0	1.0	0	240	0	0	0	unknown
8	1	4	53	47160	1681	0.5202984327916055	0	1.0	928.1435270022483	0.0			0	1.0	1	0	1.0	0	241	0	0	0	unknown
8	1	4	54	23192	8054	0.5203447205713018	1	1.0	2182.215661996452	0.0	100.0		1	1.0	0	1	2.0	0	242	0	0	0	unknown
8	1	4	55	2605	1983	0.5203910216223449	0	1.0	1433.21064599877	0.0			0	1.0	1	0	1.0	0	243	0	0	0	unknown
8	1	4	56	41580	7973	0.5204373114975169	0	1.0	803.5254740025266	0.0			0	1.0	1	0	1.0	0	244	0	0	0	unknown
8	1	4	57	49954	2469	0.520483607891947	0	1.0	803.0234830002881	0.0			0	1.0	1	0	1.0	0	245	0	0	0	unknown
8	1	4	58	21602	265	0.520529904635623	0	1.0	783.3912889982457	0.0			0	1.0	1	0	1.0	0	246	1	0	1	new
8	1	4	59	62303	860	0.5205761946272104	0	1.0	786.913457995979	0.0			0	1.0	1	0	1.0	0	247	1	0	1	new
8	1	4	60	67969	3951	0.520622496609576	0	1.0	969.0220170014072	0.0			0	1.0	1	0	1.0	0	248	0	0	0	unknown
8	1	4	61	28475	3444	0.5206687798490747	1	0.0	1782.460788002936	0.0	167.0		1	0.0	1	0	1.0	0	249	0	0	0	unknown
8	1	4	62	5302	45	0.5207150805508717	0	1.0	1058.9423540004643	0.0			0	1.0	1	0	1.0	0	250	1	0	1	new
8	1	5	1	15493	187	0.5234488814603537	0	1.0	1167.7445990062552	0.0			0	1.0	1	0	1.0	0	251	1	0	1	new
8	1	5	2	17703	6960	0.5234951854217798	0	1.0	725.4795389962964	0.0			0	1.0	1	0	1.0	0	252	0	0	0	unknown
8	1	5	3	71111	9857	0.5235414698254317	0	1.0	1410.1656139973784	0.0			0	1.0	1	0	1.0	0	253	0	0	0	unknown
8	1	5	4	49011	9133	0.5235877671511843	0	1.0	612.5064860025304	0.0			0	1.0	1	0	1.0	0	254	0	0	0	unknown
8	1	5	5	29751	8620	0.5236340558622032	0	1.0	803.1397730010211	0.0			0	1.0	1	0	1.0	0	255	0	0	0	unknown
8	1	5	6	25288	323	0.523680361569859	0	1.0	782.8989929985254	0.0			0	1.0	2	0	1.0	0	256	1	0	1	new
8	1	5	7	49548	7974	0.5237266377080231	0	1.0	752.6918389994535	0.0			0	1.0	1	0	1.0	0	257	0	0	0	unknown
8	1	5	8	50242	3060	0.5237729465588927	0	1.0	728.867508994881	0.0			0	1.0	1	0	1.0	0	258	0	0	0	unknown
8	1	5	9	11016	3271	0.5238192325923591	0	1.0	943.7033580034041	0.0			0	1.0	1	0	1.0	0	259	0	0	0	unknown
8	1	5	10	8362	5081	0.5238655378343537	0	1.0	823.4916290020918	0.0			0	1.0	1	0	1.0	0	260	0	0	0	unknown
8	1	5	11	31480	4741	0.523958018515259	0	1.0	720.9914060003939	0.0			0	1.0	1	0	1.0	0	261	0	0	0	unknown
8	1	5	12	12464	1085	0.5240043101366609	0	1.0	1030.2630189980844	0.0			0	1.0	1	0	1.0	0	262	0	0	0	unknown
8	1	5	13	11180	6570	0.5240506088593974	0	1.0	1736.6342839959543	0.0			0	1.0	1	0	1.0	0	263	0	0	0	unknown
8	1	5	14	14703	4734	0.5240969031583517	1	1.0	984.5462279990896	0.0	25.0		1	1.0	0	1	2.0	0	264	0	0	0	unknown
8	1	5	15	21602	265	0.5241431938484311	1	1.0	1244.7900640036096	0.0	18.0		1	1.0	0	1	2.0	0	265	1	0	2	easy
8	1	5	16	62662	2980	0.5241894829086959	1	1.0	970.1005599999917	0.0	116.0	119.0	1	1.0	0	1	2.0	0	266	0	0	0	unknown
8	1	5	17	54886	6150	0.5242357853567227	0	1.0	1136.6898889973527	0.0			0	1.0	1	0	1.0	0	267	0	0	0	unknown
8	1	5	18	6559	66	0.5242820816347376	0	1.0	963.8962099998024	0.0			0	1.0	1	0	1.0	0	268	1	0	1	new
8	1	5	19	53406	5550	0.5243283649906516	0	1.0	745.2658740003245	0.0			0	1.0	1	0	1.0	0	269	0	0	0	unknown
8	1	5	20	27341	6106	0.5243746617343276	0	1.0	791.9766639970477	0.0			0	1.0	1	0	1.0	0	270	0	0	0	unknown
8	1	5	21	41580	7973	0.5244209576630964	1	1.0	949.2452670019702	0.0	26.0		1	1.0	0	1	2.0	0	271	0	0	0	unknown
8	1	5	22	5590	4401	0.5244672504486516	0	0.0	1330.187041996396	0.0			0	0.0	0	1	2.0	0	272	0	0	0	unknown
8	1	5	23	28175	2727	0.5245598469628021	0	1.0	812.7232260012532	0.0			0	1.0	1	0	1.0	0	273	0	0	0	unknown
8	1	5	24	28184	6036	0.5246061398647724	0	1.0	934.9346920062088	0.0			0	1.0	1	0	1.0	0	274	0	0	0	unknown
8	1	5	25	610	7741	0.5246524242684245	0	1.0	1003.6172839973004	0.0			0	1.0	1	0	1.0	0	275	0	0	0	unknown
8	1	5	26	20513	2387	0.5246987297432497	0	1.0	910.5997259975992	0.0			0	1.0	1	0	1.0	0	276	0	0	0	unknown
8	1	5	27	63862	7130	0.5247450202004984	0	1.0	726.5773129984153	0.0			0	1.0	1	0	1.0	0	277	0	0	0	unknown
8	1	5	28	15746	6647	0.5247913156636059	0	1.0	834.0390579978703	0.0			0	1.0	1	0	1.0	0	278	0	0	0	unknown
8	1	5	29	70211	5925	0.5248376014642417	1	1.0	2902.5679100013804	1.0	118.0		1	1.0	1	1	2.0	0	279	0	0	0	unknown
8	1	5	30	60399	3686	0.5248839032137766	0	1.0	1036.697864998132	0.0			0	1.0	1	0	1.0	0	280	0	0	0	unknown
8	1	5	31	70336	970	0.5249301944859325	1	0.0	1757.5727959992946	0.0	153.0		1	0.0	1	0	1.0	0	281	1	0	2	easy
8	1	5	32	16724	201	0.5249764862237498	0	1.0	719.6790640009567	0.0			0	1.0	1	0	1.0	0	282	1	0	1	new
8	1	5	33	28535	4687	0.5250227850629016	1	1.0	1652.1723209953052	0.0	91.0		1	1.0	0	1	2.0	0	283	0	0	0	unknown
8	1	5	34	20513	2387	0.5251153738936409	1	1.0	990.2992259958409	0.0	7.0		1	1.0	0	2	2.0	0	284	0	0	0	unknown
8	1	5	35	61861	6349	0.5251615730812773	0	1.0	774.3265230019459	0.0			0	1.0	1	0	1.0	0	285	0	0	0	unknown
8	1	5	36	48198	3457	0.525207866798155	1	1.0	902.3563579976324	0.0	85.0		1	1.0	0	1	2.0	0	286	0	0	0	unknown
8	1	5	37	60763	5237	0.5252541607478634	0	1.0	771.9894730034865	0.0			0	1.0	1	0	1.0	0	287	0	0	0	unknown
8	1	5	38	60763	5237	0.5253004538826644	1	1.0	820.7723920058925	0.0	0.0		1	1.0	0	1	2.0	0	288	0	0	0	unknown
8	1	5	39	63928	5169	0.5253467413131147	1	1.0	1474.5349649965647	0.0	180.0	222.0	1	1.0	0	1	2.0	0	289	0	0	0	unknown
8	1	5	40	71793	2284	0.5253930455073714	0	1.0	1446.3844900019467	0.0			0	1.0	1	0	1.0	0	290	0	0	0	unknown
8	1	5	41	51574	4210	0.5254393408540636	0	1.0	1306.6646990046136	0.0			0	1.0	1	0	1.0	0	291	0	0	0	unknown
8	1	5	42	67997	3597	0.5254856343381106	0	1.0	1107.2388050015431	0.0			0	1.0	1	0	1.0	0	292	0	0	0	unknown
8	1	5	43	41894	2768	0.5255782190943136	0	1.0	889.028915997187	0.0			0	1.0	1	0	1.0	0	293	0	0	0	unknown
8	1	5	44	12090	5714	0.5256245174678043	0	1.0	772.4689789974946	0.0			0	1.0	1	0	1.0	0	294	0	0	0	unknown
8	1	5	45	69487	7852	0.5256708079250529	1	1.0	1828.0805709946435	0.0	81.0	112.0	1	1.0	0	1	2.0	0	295	0	0	0	unknown
8	1	5	46	68616	9788	0.5257170962868258	0	1.0	747.6765419996809	0.0			0	1.0	1	0	1.0	0	296	0	0	0	unknown
8	1	5	47	26279	9094	0.5257633954752235	0	1.0	1018.9836249992368	0.0			0	1.0	1	0	1.0	0	297	0	0	0	unknown
8	1	5	48	13416	2607	0.5258096803445369	0	1.0	1352.961482996761	0.0			0	1.0	1	0	1.0	0	298	0	0	0	unknown
8	1	5	49	50387	9272	0.525855976040475	0	1.0	853.0405459969187	0.0			0	1.0	1	0	1.0	0	299	0	0	0	unknown
8	1	5	50	21350	5192	0.525902279303409	0	0.0	1202.1141599980183	0.0			0	0.0	0	1	2.0	0	300	0	0	0	unknown
8	1	5	51	1493	7185	0.5259485717397183	0	1.0	1285.3259800031083	0.0			0	1.0	1	0	1.0	0	301	0	0	0	unknown
8	1	5	52	59844	6581	0.525994866155088	0	1.0	875.6378179969033	0.0			0	1.0	1	0	1.0	0	302	0	0	0	unknown
8	1	5	53	40310	1492	0.5260411604540421	0	1.0	1777.39160299825	0.0			0	1.0	1	0	1.0	0	303	0	0	0	unknown
8	1	5	54	46911	2196	0.5260874537052586	0	1.0	802.3628800001461	0.0			0	1.0	1	0	1.0	0	304	0	0	0	unknown
8	1	5	55	13804	7998	0.5261800416046754	0	1.0	1145.5499920048169	0.0			0	1.0	1	0	1.0	0	305	0	0	0	unknown
8	1	5	56	40576	531	0.5262263279873877	0	1.0	876.6601649986113	0.0			0	1.0	1	0	1.0	0	306	1	0	1	new
8	1	5	57	7315	6520	0.5262726311339065	0	1.0	830.081339001481	0.0			0	1.0	1	0	1.0	0	307	0	0	0	unknown
8	1	5	58	39789	3898	0.5263189242687076	0	1.0	1122.9425179990355	0.0			0	1.0	1	0	1.0	0	308	0	0	0	unknown
8	1	5	59	38175	9743	0.526365211000666	0	1.0	1452.9005529984715	0.0			0	1.0	1	0	1.0	0	309	0	0	0	unknown
8	1	5	60	48091	2430	0.5264115112368017	0	1.0	656.7875149994507	0.0			0	1.0	1	0	1.0	0	310	0	0	0	unknown
8	1	5	61	61596	3694	0.5264577112393453	1	1.0	1024.0301550002187	0.0	214.0		1	1.0	0	1	2.0	0	311	0	0	0	unknown
8	1	5	62	70629	3548	0.5265039978548884	1	0.0	1003.2661610021024	0.0	103.0		1	0.0	1	0	1.0	0	312	0	0	0	unknown
8	1	5	63	4433	1939	0.5265503012342378	0	1.0	815.0520230046823	0.0			0	1.0	1	0	1.0	0	313	0	0	0	unknown
8	1	6	1	42273	1129	0.5281176377320662	0	1.0	1145.3750590007985	0.0			0	1.0	1	0	1.0	0	314	0	0	0	unknown
8	1	6	2	14804	3996	0.5281639347085729	0	1.0	770.6442290000268	0.0			0	1.0	1	0	1.0	0	315	0	0	0	unknown
8	1	6	3	5732	5160	0.5282102212077006	0	1.0	730.406584996672	0.0			0	1.0	1	0	1.0	0	316	0	0	0	unknown
8	1	6	4	34310	2539	0.5282565230736508	0	1.0	514.1612170045846	0.0			0	1.0	1	0	1.0	0	317	0	0	0	unknown
8	1	6	5	71890	5155	0.5283028150442987	0	1.0	603.2983870027238	0.0			0	1.0	1	0	1.0	0	318	0	0	0	unknown
8	1	6	6	57060	3647	0.5283491108566521	0	0.0	1477.6556109936791	0.0			0	0.0	0	1	2.0	0	319	0	0	0	unknown
8	1	6	7	55018	7233	0.528395403525792	0	1.0	820.7853339990834	0.0			0	1.0	1	0	1.0	0	320	0	0	0	unknown
8	1	6	8	20602	5772	0.5284416996873915	1	1.0	984.0288769992186	0.0	234.0		1	1.0	0	1	2.0	0	321	0	0	0	unknown
8	1	6	9	42118	5761	0.5284879939863458	0	1.0	1124.9712060016464	0.0			0	1.0	1	0	1.0	0	322	0	0	0	unknown
8	1	6	10	42787	9964	0.5285342838615179	0	1.0	1540.550275996793	0.0			0	1.0	1	0	1.0	0	323	0	0	0	unknown
8	1	6	11	17536	3903	0.5285805758321657	0	1.0	904.7044800026924	0.0			0	1.0	1	0	1.0	0	324	0	0	0	unknown
8	1	6	12	42125	9657	0.5286268694326282	0	1.0	888.5957969978334	0.0			0	1.0	1	0	1.0	0	325	0	0	0	unknown
8	1	6	13	40170	1808	0.528719465364702	0	0.0	2163.758015994972	0.0			0	0.0	0	1	2.0	0	326	0	0	0	unknown
8	1	6	14	38428	3036	0.5287657602457329	0	1.0	729.2664049964513	0.0			0	1.0	1	0	1.0	0	327	0	0	0	unknown
8	1	6	15	2664	9484	0.5288120524492114	0	1.0	847.8828639999848	0.0			0	1.0	1	0	1.0	0	328	0	0	0	unknown
8	1	6	16	47464	4025	0.5288583434885367	1	1.0	1630.1363120001042	0.0	155.0	156.0	1	1.0	0	1	2.0	0	329	0	0	0	unknown
8	1	6	17	54035	6068	0.5289045678218826	0	1.0	808.8714400000755	0.0			0	1.0	1	0	1.0	0	330	0	0	0	unknown
8	1	6	18	38525	5418	0.5289508330170065	0	1.0	988.227737994748	0.0			0	1.0	1	0	1.0	0	331	0	0	0	unknown
8	1	6	19	32288	4005	0.5289971325546503	0	1.0	891.2536389980232	0.0			0	1.0	1	0	1.0	0	332	0	0	0	unknown
8	1	6	20	15386	9960	0.5290434267371892	0	1.0	1282.604515996354	0.0			0	1.0	1	0	1.0	0	333	0	0	0	unknown
8	1	6	21	49191	6726	0.529089719406329	1	1.0	1333.5684050034615	0.0	193.0		1	1.0	0	1	2.0	0	334	0	0	0	unknown
8	1	6	22	70385	2504	0.529136017197743	0	0.0	1927.7280110036368	0.0			0	0.0	0	1	2.0	0	335	0	0	0	unknown
8	1	6	23	69802	2735	0.529228605562821	0	1.0	1389.714996999828	0.0			0	1.0	1	0	1.0	0	336	0	0	0	unknown
8	1	6	24	56887	8174	0.529274890315719	0	1.0	867.5336620071904	0.0			0	1.0	1	0	1.0	0	337	0	0	0	unknown
8	1	6	25	3476	7260	0.5293211913667619	0	1.0	772.291638997558	0.0			0	1.0	1	0	1.0	0	338	0	0	0	unknown
8	1	6	26	27299	5558	0.5293674840359017	0	1.0	719.9090059948503	0.0			0	1.0	1	0	1.0	0	339	0	0	0	unknown
8	1	6	27	25403	7780	0.5294137716991826	0	1.0	1273.370408998744	0.0			0	1.0	1	0	1.0	0	340	0	0	0	unknown
8	1	6	28	67346	1014	0.5294600743800401	0	1.0	1353.7651520018699	0.0			0	1.0	1	0	1.0	0	341	0	0	0	unknown
8	1	6	29	19180	3638	0.5295063658850268	0	1.0	863.4296840027673	0.0			0	1.0	1	0	1.0	0	342	0	0	0	unknown
8	1	6	30	46478	6843	0.5295526608824729	1	1.0	1132.463510002708	0.0	240.0		1	1.0	0	1	2.0	0	343	0	0	0	unknown
8	1	6	31	54641	9313	0.5295989599544554	0	1.0	1313.6282630002825	0.0			0	1.0	1	0	1.0	0	344	0	0	0	unknown
8	1	6	32	38690	1702	0.5296452428447082	0	0.0	1758.232134001446	0.0			0	0.0	0	1	2.0	0	345	0	0	0	unknown
8	1	6	33	45596	616	0.5296915462240576	0	1.0	1153.646307000599	0.0			0	1.0	1	0	1.0	0	346	1	1	1	new
8	1	6	34	21379	3640	0.5297378347022458	0	1.0	1048.9629540024907	0.0			0	1.0	1	0	1.0	0	347	0	0	0	unknown
8	1	6	35	65573	8318	0.5298304272582754	0	1.0	1304.961039997579	0.0			0	1.0	1	0	1.0	0	348	0	0	0	unknown
8	1	6	36	56047	9017	0.529876722022891	0	1.0	869.5134860026883	0.0			0	1.0	1	0	1.0	0	349	0	0	0	unknown
8	1	6	37	15012	9347	0.5299230078235267	0	1.0	869.7882060005213	0.0			0	1.0	1	0	1.0	0	350	0	0	0	unknown
8	1	6	38	18063	5238	0.5299693081760779	0	0.0	2103.3491319976747	0.0			0	0.0	0	1	2.0	0	351	0	0	0	unknown
8	1	6	39	17803	6246	0.5300156022422015	0	1.0	675.8110499940813	0.0			0	1.0	1	0	1.0	0	352	0	0	0	unknown
8	1	6	40	58558	3194	0.5300618995679542	1	1.0	1302.079943998251	0.0	158.0		1	1.0	0	1	2.0	0	353	0	0	0	unknown
8	1	6	41	53053	727	0.5301081844372674	1	1.0	914.559388998896	0.0	297.0		1	1.0	0	1	2.0	0	354	1	1	2	easy
8	1	6	42	13873	6311	0.5301543872337788	0	1.0	1184.7207969985902	0.0			0	1.0	1	0	1.0	0	355	0	0	0	unknown
8	1	6	43	46715	8935	0.5302006780402734	1	0.0	806.310547995963	0.0	189.0		1	0.0	1	0	1.0	0	356	0	0	0	unknown
8	1	6	44	9918	116	0.5302932716440409	0	1.0	838.0027630046243	0.0			0	1.0	1	0	1.0	0	357	1	0	1	new
8	1	6	45	63031	2297	0.5303395630326122	0	1.0	861.9808760049635	0.0			0	1.0	1	0	1.0	0	358	0	0	0	unknown
8	1	6	46	5723	3293	0.5303858604747802	0	1.0	1362.2441609986708	0.0			0	1.0	1	0	1.0	0	359	0	0	0	unknown
8	1	6	47	26599	351	0.5304321554722264	0	1.0	854.6709790025488	0.0			0	1.0	1	0	1.0	0	360	1	0	1	new
8	1	6	48	42773	2336	0.5304784479085355	0	1.0	767.6667420018931	0.0			0	1.0	1	0	1.0	0	361	0	0	0	unknown
8	1	6	49	21602	265	0.5305247356882318	1	1.0	848.4991290024482	0.0	96.0	115.0	1	1.0	0	1	2.0	0	362	1	0	3	easy
8	1	6	50	23404	9949	0.5305710368556901	1	1.0	948.2891190054944	0.0	143.0		1	1.0	0	1	2.0	0	363	0	0	0	unknown
8	1	6	51	38525	5418	0.5306173311546444	1	1.0	807.4342440013424	0.0	32.0		1	1.0	0	1	2.0	0	364	0	0	0	unknown
8	1	6	52	11835	6017	0.5306636247551068	0	1.0	1084.4545180007117	0.0			0	1.0	1	0	1.0	0	365	0	0	0	unknown
8	1	6	53	48407	8280	0.5307562144007533	0	1.0	834.6075099980226	0.0			0	1.0	1	0	1.0	0	366	0	0	0	unknown
8	1	6	54	6150	9965	0.5308025050908327	0	1.0	902.7335030041284	0.0			0	1.0	1	0	1.0	0	367	0	0	0	unknown
8	1	6	55	23883	8516	0.5308488021837547	0	1.0	911.1850170011166	0.0			0	1.0	1	0	1.0	0	368	0	0	0	unknown
8	1	6	56	23192	8054	0.5308950959006324	1	1.0	929.2137039956287	0.0	126.0	227.0	1	1.0	0	1	2.0	0	369	0	0	0	unknown
8	1	6	57	8271	1266	0.5309413896175101	1	1.0	1126.3931119974586	0.0	144.0	237.0	1	1.0	0	1	2.0	0	370	0	0	0	unknown
8	1	6	58	58009	8093	0.5309876840328797	0	1.0	1387.1592639989103	0.0			0	1.0	1	0	1.0	0	371	0	0	0	unknown
8	1	6	59	39869	8498	0.5310339705320075	0	1.0	1723.580083998968	0.0			0	1.0	1	0	1.0	0	372	0	0	0	unknown
8	1	6	60	49954	2469	0.5310802708845584	1	1.0	1705.905424998491	0.0	127.0		1	1.0	0	1	2.0	0	373	0	0	0	unknown
8	1	6	61	60306	830	0.5311265675118193	0	1.0	903.3460650025517	0.0			0	1.0	1	0	1.0	0	374	1	0	1	new
8	1	6	62	17267	6274	0.5311728563392534	1	1.0	1023.1200799971703	0.0	224.0		1	1.0	0	1	2.0	0	375	0	0	0	unknown
8	1	7	1	56887	8174	0.5328162896912544	1	1.0	920.7528730039485	0.0	38.0		1	1.0	0	1	2.0	0	376	0	0	0	unknown
8	1	7	2	62246	4615	0.5328626164700835	0	1.0	1145.8619859986356	0.0			0	1.0	1	0	1.0	0	377	0	0	0	unknown
8	1	7	3	34537	2736	0.5329088756116107	0	1.0	1264.5424750007803	0.0			0	1.0	1	0	1.0	0	378	0	0	0	unknown
8	1	7	4	61912	5200	0.5329552103066816	1	1.0	1371.1086550028995	0.0	291.0		1	1.0	0	1	2.0	0	379	0	0	0	unknown
8	1	7	5	23014	2330	0.5330014647915959	0	1.0	873.2963399961591	0.0			0	1.0	1	0	1.0	0	380	0	0	0	unknown
8	1	7	6	42798	4470	0.5330478036776185	0	1.0	904.7305290005168	0.0			0	1.0	1	0	1.0	0	381	0	0	0	unknown
8	1	7	7	23796	4068	0.5330940523417667	1	0.0	946.9816939963491	0.0	304.0		1	0.0	1	0	1.0	0	382	0	0	0	unknown
8	1	7	8	48227	5858	0.5331404004245996	0	0.0	1455.2855850051856	0.0			0	0.0	0	1	2.0	0	383	0	0	0	unknown
8	1	7	9	60709	1538	0.5331866403575986	1	1.0	1302.1513929998036	0.0	300.0		1	1.0	0	1	2.0	0	384	0	0	0	unknown
8	1	7	10	7573	6560	0.5332792293047532	0	1.0	2201.6293560009217	1.0			0	1.0	1	1	1.0	0	385	0	0	0	unknown
8	1	7	11	72992	8283	0.5333255921723321	0	1.0	1050.4090079994055	0.0			0	1.0	1	0	1.0	0	386	0	0	0	unknown
8	1	7	12	5732	5160	0.5333718187175691	1	0.0	809.2391669997597	0.0	70.0		1	0.0	1	0	1.0	0	387	0	0	0	unknown
8	1	7	13	5723	3293	0.5334181931102648	1	1.0	1115.63953699806	0.0	28.0		1	1.0	0	1	2.0	0	388	0	0	0	unknown
8	1	7	14	61539	5965	0.5334644069662317	1	1.0	1333.0266420016414	0.0	218.0		1	1.0	0	1	2.0	0	389	0	0	0	unknown
8	1	7	15	42529	2408	0.5335107867140322	0	1.0	1218.7780019958154	0.0			0	1.0	1	0	1.0	0	390	0	0	0	unknown
8	1	7	16	9491	9667	0.5335569945164024	1	1.0	1163.8697549933568	0.0	214.0		1	1.0	0	1	2.0	0	391	0	0	0	unknown
8	1	7	17	39386	1866	0.5336032930063083	1	1.0	1201.6014190012356	0.0	222.0		1	1.0	0	1	2.0	0	392	0	0	0	unknown
8	1	7	18	23226	3342	0.5336495836963877	0	1.0	866.8358420036384	0.0			0	1.0	1	0	1.0	0	393	0	0	0	unknown
8	1	7	19	67346	1014	0.5336958885891363	1	1.0	933.6898490000749	0.0	52.0		1	1.0	0	1	2.0	0	394	0	0	0	unknown
8	1	7	20	61117	7951	0.533788474742323	0	0.0	2080.190097993181	0.0			0	0.0	0	2	2.0	0	395	0	0	0	unknown
8	1	7	21	27326	4784	0.5338347580982372	0	1.0	1043.5435779945692	0.0			0	1.0	1	0	1.0	0	396	0	0	0	unknown
8	1	7	22	4192	5660	0.5338810625253245	0	1.0	1716.361095001048	0.0			0	1.0	1	0	1.0	0	397	0	0	0	unknown
8	1	7	23	25782	8315	0.5339273469289764	0	0.0	1270.7122260035248	0.0			0	0.0	0	1	2.0	0	398	0	0	0	unknown
8	1	7	24	48405	1098	0.533973648562096	0	1.0	1572.9395730013491	0.0			0	1.0	1	0	1.0	0	399	0	0	0	unknown
8	1	7	25	64489	1431	0.5340198379708454	0	1.0	1085.604208994482	0.0			0	1.0	1	0	1.0	0	400	0	0	0	unknown
8	1	7	26	48227	5858	0.5340661340160295	1	1.0	1027.6847809946048	0.0	17.0		1	1.0	0	1	2.0	0	401	0	0	0	unknown
8	1	7	27	59957	2848	0.5341124270344153	0	1.0	1205.2586450008675	0.0			0	1.0	1	0	1.0	0	402	0	0	0	unknown
8	1	7	28	4787	36	0.5341587165603414	0	1.0	731.8149260026986	0.0			0	1.0	1	0	1.0	0	403	1	0	1	new
8	1	7	29	12891	6866	0.5342050126055256	0	1.0	767.594860997633	0.0			0	1.0	1	0	1.0	0	404	0	0	0	unknown
8	1	7	30	48405	1098	0.5342513010837137	1	1.0	993.9224999980067	0.0	5.0		1	1.0	0	1	2.0	0	405	0	0	0	unknown
8	1	7	31	25782	8315	0.5342976001556962	1	1.0	816.0188960027882	0.0	7.0		1	1.0	0	1	2.0	0	406	0	0	0	unknown
8	1	7	32	52735	5663	0.5343438904965296	0	1.0	1675.3550630019163	0.0			0	1.0	1	0	1.0	0	407	0	0	0	unknown
8	1	7	33	48928	2218	0.5343901899177581	0	1.0	858.9574910001829	0.0			0	1.0	1	0	1.0	0	408	0	0	0	unknown
8	1	7	34	48227	5858	0.5344827832886949	1	1.0	808.0697799960035	0.0	7.0	25.0	1	1.0	0	1	2.0	0	409	0	0	0	unknown
8	1	7	35	50387	9272	0.5345290731638669	1	1.0	1036.5750980054145	0.0	110.0		1	1.0	0	1	2.0	0	410	0	0	0	unknown
8	1	7	36	57428	8216	0.5345753658330067	0	0.0	2031.494082999416	0.0			0	0.0	0	1	2.0	0	411	0	0	0	unknown
8	1	7	37	32962	7520	0.5346216631587594	0	0.0	1028.0575919969124	0.0			0	0.0	0	1	2.0	0	412	0	0	0	unknown
8	1	7	38	62086	5919	0.5346679596696048	0	0.0	1251.6822910038172	0.0			0	0.0	0	1	2.0	0	413	0	0	0	unknown
8	1	7	39	8855	2451	0.5347142514074221	0	0.0	2625.7843150015105	0.0			0	0.0	0	1	2.0	0	414	0	0	0	unknown
8	1	7	40	58786	9575	0.5347605446586385	0	0.0	1044.3898119992807	0.0			0	0.0	0	1	2.0	0	415	0	0	0	unknown
8	1	7	41	23014	2330	0.5348068337189033	1	1.0	1614.2961809964615	1.0	35.0		1	1.0	1	1	2.0	0	416	0	0	0	unknown
8	1	7	42	68400	7310	0.5348531329073011	0	1.0	1872.2529110018515	0.0			0	1.0	1	0	1.0	0	417	0	0	0	unknown
8	1	7	43	11141	8175	0.534899428137578	0	1.0	969.0395090001401	0.0			0	1.0	1	0	1.0	0	418	0	0	0	unknown
8	1	7	44	51739	2259	0.5349457123083993	1	1.0	2079.4767070037774	0.0	274.0		1	1.0	0	1	2.0	0	419	0	0	0	unknown
8	1	7	45	5590	4401	0.5349920090520754	1	1.0	992.1305970055982	0.0	147.0		1	1.0	0	1	2.0	0	420	0	0	0	unknown
8	1	7	46	66060	3902	0.5350846056826412	1	1.0	1470.214503002353	0.0	396.0		1	1.0	0	1	2.0	0	421	0	0	0	unknown
8	1	7	47	39380	9335	0.535130894044414	0	1.0	1253.9957080007296	0.0			0	1.0	1	0	1.0	0	422	0	0	0	unknown
8	1	7	48	57686	2760	0.5351771929999813	0	1.0	1935.1660629981775	0.0			0	1.0	1	0	1.0	0	423	0	0	0	unknown
8	1	7	49	11835	6017	0.535223486367613	1	1.0	1031.8441559938947	0.0	58.0		1	1.0	0	1	2.0	0	424	0	0	0	unknown
8	1	7	50	18025	8170	0.535269682877697	0	1.0	1083.2063330017263	0.0			0	1.0	1	0	1.0	0	425	0	0	0	unknown
8	1	7	51	72936	5262	0.5353159764781594	0	0.0	2204.309999004181	0.0			0	0.0	0	1	2.0	0	426	0	0	0	unknown
8	1	7	52	72936	5262	0.535362269845791	1	1.0	903.3950240045667	0.0	0.0		1	1.0	0	1	2.0	0	427	0	0	0	unknown
8	1	7	53	42773	2336	0.5354085689177736	1	1.0	1203.2187730001167	0.0	66.0		1	1.0	0	1	2.0	0	428	0	0	0	unknown
8	1	7	54	42568	3862	0.5354548608884215	0	1.0	2035.2188229953756	0.0			0	1.0	1	0	1.0	0	429	0	0	0	unknown
8	1	7	55	27771	8482	0.5355474443640559	0	1.0	1202.4063219942036	0.0			0	1.0	1	0	1.0	0	430	0	0	0	unknown
8	1	7	56	19363	9525	0.5355937428539618	0						0		0	0		0	431	0	0	0	unknown
8	1	7	57	35473	3450	0.5356400408782064	0	0.0	2019.0525600046385	0.0			0	0.0	0	1	2.0	0	432	0	0	0	unknown
8	1	7	58	69979	6692	0.5356863256311044	1	1.0	2084.401620006247	0.0	254.0		1	1.0	0	1	2.0	0	433	0	0	0	unknown
8	1	7	59	19182	230	0.535732626216486	0	1.0	1933.1018189986933	0.0			0	1.0	1	0	1.0	0	434	1	0	1	new
8	1	7	60	5822	5967	0.5357789197005332	0	1.0	2362.352144002216	0.0			0	1.0	1	0	1.0	0	435	0	0	0	unknown
8	1	7	61	66031	7856	0.5358252188889309	0	1.0	1148.3089159955853	0.0			0	1.0	1	0	1.0	0	436	0	0	0	unknown
8	1	7	62	2268	8586	0.5358715053880587	0	1.0	1103.6822640016908	0.0			0	1.0	1	0	1.0	0	437	0	0	0	unknown
8	1	7	63	63862	7130	0.5359177981736138	1	1.0	1901.9437399983872	1.0	160.0		1	1.0	1	1	2.0	0	438	0	0	0	unknown
8	1	8	1	63955	8109	0.5376617233268915	0	1.0	1123.6576960000093	0.0			0	1.0	1	0	1.0	0	439	0	0	0	unknown
8	1	8	2	6559	66	0.5377080175094306	1	1.0	1139.848383005301	0.0	171.0		1	1.0	0	1	2.0	0	440	1	0	2	easy
8	1	8	3	72081	992	0.5377543099457398	0	1.0	1129.765170997416	0.0			0	1.0	1	0	1.0	0	441	1	0	1	new
8	1	8	4	9583	2986	0.5378005994716659	0	1.0	2103.2999160015606	0.0			0	1.0	1	0	1.0	0	442	0	0	0	unknown
8	1	8	5	25644	1192	0.5378468964481726	0	1.0	1038.0963470015558	0.0			0	1.0	1	0	1.0	0	443	0	0	0	unknown
8	1	8	6	22895	5568	0.537893182830885	0	0.0	2183.9294099991093	0.0			0	0.0	0	1	2.0	0	444	0	0	0	unknown
8	1	8	7	45054	2203	0.5379394862102344	0	1.0	1514.14190500509	0.0			0	1.0	1	0	1.0	0	445	0	0	0	unknown
8	1	8	8	1493	7185	0.5379857786465436	1	1.0	1572.6566220037057	0.0	144.0		1	1.0	0	1	2.0	0	446	0	0	0	unknown
8	1	8	9	5408	4001	0.5380320742260664	0	1.0	1391.659671993693	0.0			0	1.0	1	0	1.0	0	447	0	0	0	unknown
8	1	8	10	9560	4285	0.5381246549077332	1	1.0	1968.3660559967395	0.0	261.0		1	1.0	0	1	2.0	0	448	0	0	0	unknown
8	1	8	11	36068	475	0.5381709568900988	0	1.0	977.717122004833	0.0			0	1.0	1	0	1.0	0	449	1	0	1	new
8	1	8	12	38460	7336	0.5382172447862102	1	0.0	1369.7752459993353	0.0	323.0		1	0.0	1	0	1.0	0	450	0	0	0	unknown
8	1	8	13	42313	1800	0.5382635433925315	0	1.0	2101.793954003369	0.0			0	1.0	1	0	1.0	0	451	0	0	0	unknown
8	1	8	14	50036	9121	0.5383098332677037	1	1.0	990.3061779987185	0.0	239.0		1	1.0	0	1	2.0	0	452	0	0	0	unknown
8	1	8	15	22595	7428	0.5383561262860894	0	1.0	1076.662508996378	0.0			0	1.0	1	0	1.0	0	453	0	0	0	unknown
8	1	8	16	52735	5663	0.538402423611842	1	1.0	1187.0381469998392	0.0	46.0		1	1.0	0	1	2.0	0	454	0	0	0	unknown
8	1	8	17	10039	6579	0.5384487193077802	0	1.0	924.831397998787	0.0			0	1.0	1	0	1.0	0	455	0	0	0	unknown
8	1	8	18	4768	7917	0.5384950148873031	0	1.0	1617.49409299955	0.0			0	1.0	1	0	1.0	0	456	0	0	0	unknown
8	1	8	19	10170	3756	0.538541307207197	1	1.0	2182.834951003315	1.0	219.0		1	1.0	1	1	2.0	0	457	0	0	0	unknown
8	1	8	20	27341	6106	0.5386338972020894	1	1.0	1263.0587489984464	0.0	187.0		1	1.0	0	1	2.0	0	458	0	0	0	unknown
8	1	8	21	28037	2186	0.5386801873100922	0	1.0	1278.1959130006724	0.0			0	1.0	1	0	1.0	0	459	0	0	0	unknown
8	1	8	22	62246	4615	0.5387264820747077	1	1.0	1589.4807929944363	0.0	82.0		1	1.0	0	2	2.0	0	460	0	0	0	unknown
8	1	8	23	35558	4306	0.5387727846391499	0	1.0	1031.1532510022516	0.0			0	1.0	1	0	1.0	0	461	0	0	0	unknown
8	1	8	24	2370	5523	0.5388190692756325	0	1.0	1492.2129449987551	0.0			0	1.0	1	0	1.0	0	462	0	0	0	unknown
8	1	8	25	49548	7974	0.5388653697445988	1	0.0	875.8918940002332	0.0	205.0		1	0.0	1	0	1.0	0	463	0	0	0	unknown
8	1	8	26	49603	1196	0.5389116663718596	0	1.0	928.0153430008796	0.0			0	1.0	1	0	1.0	0	464	0	0	0	unknown
8	1	8	27	52427	9718	0.538957858341746	1	1.0	1254.1238630001317	0.0	317.0		1	1.0	0	1	2.0	0	465	0	0	0	unknown
8	1	8	28	43847	9244	0.5390041470527648	0	1.0	1704.832252995402	0.0			0	1.0	1	0	1.0	0	466	0	0	0	unknown
8	1	8	29	32434	2604	0.539050449966453	0	1.0	1426.0229959982098	0.0			0	1.0	1	0	1.0	0	467	0	0	0	unknown
8	1	8	30	53575	4793	0.5390967458952218	0	1.0	948.8608519968691	0.0			0	1.0	1	0	1.0	0	468	0	0	0	unknown
8	1	8	31	71754	988	0.5391893279738724	0	1.0	1209.387303002586	0.0			0	1.0	1	0	1.0	0	469	1	0	1	new
8	1	8	32	36672	5894	0.53923562343698	0	0.0	2526.9878629987943	0.0			0	0.0	0	1	2.0	0	470	0	0	0	unknown
8	1	8	33	54219	1732	0.5392819239059463	0	1.0	1454.9250149939323	0.0			0	1.0	1	0	1.0	0	471	0	0	0	unknown
8	1	8	34	7409	6066	0.5393282180884853	0	1.0	1425.9785100002773	0.0			0	1.0	1	0	1.0	0	472	0	0	0	unknown
8	1	8	35	9541	7020	0.5393745034234598	0	1.0	1085.005620996526	0.0			0	1.0	1	0	1.0	0	473	0	0	0	unknown
8	1	8	36	20070	9798	0.5394207957433536	0	1.0	846.3855909940322	0.0			0	1.0	1	0	1.0	0	474	0	0	0	unknown
8	1	8	37	29020	1771	0.5394670967943966	0	1.0	1610.0254529956146	0.0			0	1.0	1	0	1.0	0	475	0	0	0	unknown
8	1	8	38	31709	5382	0.5395133938873186	0	1.0	853.722542997275	0.0			0	1.0	1	0	1.0	0	476	0	0	0	unknown
8	1	8	39	42600	8917	0.5395596857415512	0	1.0	856.3963019987568	0.0			0	1.0	1	0	1.0	0	477	0	0	0	unknown
8	1	8	40	13873	6311	0.5396059788763523	1	1.0	2175.9282480052207	0.0	122.0		1	1.0	0	1	2.0	0	478	0	0	0	unknown
8	1	8	41	7253	5514	0.5396522737573832	0	1.0	957.1491530005005	0.0			0	1.0	1	0	1.0	0	479	0	0	0	unknown
8	1	8	42	10778	3924	0.5397448547882959	0	1.0	990.6574910055496	0.0			0	1.0	1	0	1.0	0	480	0	0	0	unknown
8	1	8	43	32434	2604	0.5397911561885848	1	1.0	938.2587860018248	0.0	13.0		1	1.0	0	1	2.0	0	481	0	0	0	unknown
8	1	8	44	25644	1192	0.5398374504875391	1	1.0	1046.6598560014972	0.0	38.0		1	1.0	0	1	2.0	0	482	0	0	0	unknown
8	1	8	45	67508	2755	0.5398837429238483	0	1.0	1265.854634999414	0.0			0	1.0	1	0	1.0	0	483	0	0	0	unknown
8	1	8	46	1361	9761	0.5399300337303429	0	1.0	1478.0869880050886	0.0			0	1.0	1	0	1.0	0	484	0	0	0	unknown
8	1	8	47	59491	1968	0.5399763322202488	0	1.0	881.0148990014568	0.0			0	1.0	1	0	1.0	0	485	0	0	0	unknown
8	1	8	48	12441	7559	0.540022627916187	1	1.0	1506.6004580003207	1.0	268.0		1	1.0	1	1	2.0	0	486	0	0	0	unknown
8	1	8	49	18611	1551	0.5400689110392703	0	1.0	835.8066829969174	0.0			0	1.0	1	0	1.0	0	487	0	0	0	unknown
8	1	8	50	16796	6666	0.5401152154663577	1	1.0	1214.2288770046434	0.0	336.0		1	1.0	0	1	2.0	0	488	0	0	0	unknown
8	1	8	51	18025	8170	0.5401615045266225	1	1.0	1073.1026110006496	0.0	63.0		1	1.0	0	1	2.0	0	489	0	0	0	unknown
8	1	8	52	10170	3756	0.5402077987091615	1	1.0	1078.5699490006664	0.0	32.0	252.0	1	1.0	0	1	2.0	0	490	0	0	0	unknown
8	1	8	53	59813	2262	0.5402540233917534	0	1.0	2100.9136049979134	0.0			0	1.0	1	0	1.0	0	491	0	0	0	unknown
8	1	8	54	27326	4784	0.5403002863749861	1	1.0	1045.3474699970684	0.0	95.0		1	1.0	0	1	2.0	0	492	0	0	0	unknown
8	1	8	55	12090	5714	0.5403928816085681	1	1.0	2041.9867950040496	1.0	198.0		1	1.0	1	1	2.0	0	493	0	0	0	unknown
8	1	8	56	55564	1108	0.5404391721822321	1	1.0	959.2523559986147	0.0	279.0	389.0	1	1.0	0	1	2.0	0	494	0	0	0	unknown
8	1	8	57	14910	1224	0.5404854749795049	0	1.0	1462.5798709967055	0.0			0	1.0	1	0	1.0	0	495	0	0	0	unknown
8	1	8	58	65406	9934	0.5405317614786326	0	1.0	1020.822192003834	0.0			0	1.0	1	0	1.0	0	496	0	0	0	unknown
8	1	8	59	20038	1317	0.5405780517030507	0	1.0	1028.8373859948479	0.0			0	1.0	1	0	1.0	0	497	0	0	0	unknown
8	1	8	60	58145	805	0.5406243529869244	0	1.0	1003.2935400013228	0.0			0	1.0	1	0	1.0	0	498	1	0	1	new
8	1	8	61	29030	5274	0.540670640184544	0	1.0	802.2479330029454	0.0			0	1.0	1	0	1.0	0	499	0	0	0	unknown
8	1	8	62	25021	5350	0.5407169392565265	0	1.0	704.2988120010705	0.0			0	1.0	1	0	1.0	0	500	0	0	0	unknown
8	1	9	1	59813	2262	0.5431400085799396	1	1.0	1005.3988490035408	0.0	9.0		1	1.0	0	1	2.0	0	501	0	0	0	unknown
8	1	9	2	17803	6246	0.5431863128906115	1	0.0	1202.447137002309	0.0	149.0		1	0.0	1	0	1.0	0	502	0	0	0	unknown
8	1	9	3	50387	9272	0.5432325964793562	1	1.0	923.2995580023272	0.0	92.0	203.0	1	1.0	0	1	2.0	0	503	0	0	0	unknown
8	1	9	4	31480	4741	0.5432788945036008	1	1.0	1632.0932609960437	0.0	242.0		1	1.0	0	1	2.0	0	504	0	0	0	unknown
8	1	9	5	11943	145	0.543325177161023	0	1.0	1187.1138069982408	0.0			0	1.0	1	0	1.0	0	505	1	1	1	new
8	1	9	6	16484	6367	0.5433714817045256	0	1.0	1392.8422589960971	0.0			0	1.0	1	0	1.0	0	506	0	0	0	unknown
8	1	9	7	70629	3548	0.543417773908004	1	1.0	832.1348729950842	0.0	194.0	298.0	1	1.0	0	1	2.0	0	507	0	0	0	unknown
8	1	9	8	14049	2752	0.5434640754247084	0	1.0	909.8317430034512	0.0			0	1.0	1	0	1.0	0	508	0	0	0	unknown
8	1	9	9	19182	230	0.5435103548225015	1	1.0	784.6857990007265	0.0	74.0		1	1.0	0	1	2.0	0	509	1	0	2	easy
8	1	9	10	15552	9922	0.5435566597152501	0	1.0	1825.8608299947807	0.0			0	1.0	1	0	1.0	0	510	0	0	0	unknown
8	1	9	11	55630	5889	0.543602950987406	0	1.0	849.8865139990813	0.0			0	1.0	1	0	1.0	0	511	0	0	0	unknown
8	1	9	12	63490	2377	0.543649244820699	0	1.0	810.9862659985083	0.0			0	1.0	1	0	1.0	0	512	0	0	0	unknown
8	1	9	13	40310	1492	0.5436955380719155	1	1.0	1429.0005219954764	0.0	209.0		1	1.0	0	1	2.0	0	513	0	0	0	unknown
8	1	9	14	58558	3194	0.5437881274847313	1	1.0	2001.5566739966744	0.0	160.0	319.0	1	1.0	0	1	2.0	0	514	0	0	0	unknown
8	1	9	15	69167	1899	0.5438344192225486	0	1.0	1759.2564939986914	0.0			0	1.0	1	0	1.0	0	515	0	0	0	unknown
8	1	9	16	31892	9049	0.5438807136379182	0	1.0	1488.0050089996075	0.0			0	1.0	1	0	1.0	0	516	0	0	0	unknown
8	1	9	17	8362	5081	0.543927016085945	1	1.0	1104.9701980009559	0.0	256.0		1	1.0	0	1	2.0	0	517	0	0	0	unknown
8	1	9	18	56887	8174	0.5439733021194115	1	1.0	1185.6465430028038	0.0	141.0	180.0	1	1.0	0	1	2.0	0	518	0	0	0	unknown
8	1	9	19	36899	1624	0.5440194924594834	0	1.0	1059.274949999235	0.0			0	1.0	1	0	1.0	0	519	0	0	0	unknown
8	1	9	20	38818	511	0.5440657912986353	0	1.0	2203.2365889972425	0.0			0	1.0	1	0	1.0	0	520	1	0	1	new
8	1	9	21	31945	4420	0.5441120803589001	0	1.0	988.0332570028257	0.0			0	1.0	1	0	1.0	0	521	0	0	0	unknown
8	1	9	22	35053	5745	0.5441583740757778	0	1.0	828.7731370000982	0.0			0	1.0	1	0	1.0	0	522	0	0	0	unknown
8	1	9	23	48843	3492	0.5442046686075627	0	1.0	1503.1490689943892	0.0			0	1.0	1	0	1.0	0	523	0	0	0	unknown
8	1	9	24	66490	919	0.5442509631393477	0	1.0	1178.6787620003452	0.0			0	1.0	1	0	1.0	0	524	1	0	1	new
8	1	9	25	8311	5733	0.5443435620982199	0	1.0	802.5231130013709	0.0			0	1.0	1	0	1.0	0	525	0	0	0	unknown
8	1	9	26	34569	8542	0.5443898527882993	0	1.0	801.7830839962697	0.0			0	1.0	1	0	1.0	0	526	0	0	0	unknown
8	1	9	27	461	2220	0.5444361440604552	0	1.0	1376.3412259941103	0.0			0	1.0	1	0	1.0	0	527	0	0	0	unknown
8	1	9	28	71233	984	0.5444824455771595	0	1.0	1303.0979629984358	0.0			0	1.0	1	0	1.0	0	528	1	0	1	new
8	1	9	29	8546	7057	0.5445287262555211	0	1.0	2206.406126002548	0.0			0	1.0	1	0	1.0	0	529	0	0	0	unknown
8	1	9	30	5823	5896	0.5445750282378867	0	1.0	1117.7363619935932	0.0			0	1.0	1	0	1.0	0	530	0	0	0	unknown
8	1	9	31	65970	7390	0.5446213145041838	0	1.0	2259.06735600438	0.0			0	1.0	1	0	1.0	0	531	0	0	0	unknown
8	1	9	32	55733	5139	0.5446676118299365	0	1.0	1131.729720000294	0.0			0	1.0	1	0	1.0	0	532	0	0	0	unknown
8	1	9	33	35238	2320	0.5447139113675802	0	1.0	2503.292869005236	0.0			0	1.0	1	0	1.0	0	533	0	0	0	unknown
8	1	9	34	17632	6169	0.5447602064814419	0	1.0	780.0544879937661	0.0			0	1.0	1	0	1.0	0	534	0	0	0	unknown
8	1	9	35	20910	4523	0.54480650217738	1				522.0		1		0	0		0	535	0	0	0	unknown
8	1	9	36	42909	7240	0.5448990921722725	0	1.0	1517.3693889955755	0.0			0	1.0	1	0	1.0	0	536	0	0	0	unknown
8	1	9	37	62975	6069	0.5449453821638599	0	1.0	968.9728219964308	0.0			0	1.0	1	0	1.0	0	537	0	0	0	unknown
8	1	9	38	11534	6817	0.5449916775105521	0	1.0	902.7300519956043	0.0			0	1.0	1	0	1.0	0	538	0	0	0	unknown
8	1	9	39	35238	2320	0.5450379678513854	1	1.0	1261.074344998633	0.0	5.0		1	1.0	0	1	2.0	0	539	0	0	0	unknown
8	1	9	40	67969	3951	0.5450842570280656	1	1.0	1075.2396440002483	0.0	291.0		1	1.0	0	1	2.0	0	540	0	0	0	unknown
8	1	9	41	32786	7568	0.5451305592432618	0	1.0	724.4435879983939	0.0			0	1.0	1	0	1.0	0	541	0	0	0	unknown
8	1	9	42	21261	7447	0.545176845160313	0	1.0	1623.4354639964295	0.0			0	1.0	1	0	1.0	0	542	0	0	0	unknown
8	1	9	43	21851	6540	0.5452231476083397	0	1.0	848.6426260060398	0.0			0	1.0	1	0	1.0	0	543	0	0	0	unknown
8	1	9	44	16565	2255	0.5452694334089756	0	1.0	3039.4059649988776	0.0			0	1.0	1	0	1.0	0	544	0	0	0	unknown
8	1	9	45	36399	9088	0.5453619328327476	0	1.0	1709.4941300019855	0.0			0	1.0	1	0	1.0	0	545	0	0	0	unknown
8	1	9	46	68089	9124	0.5454082319047302	0	1.0	1142.7536780029186	0.0			0	1.0	1	0	1.0	0	546	0	0	0	unknown
8	1	9	47	5723	3293	0.5454545223619788	1	1.0	871.4961630030302	0.0	158.0	187.0	1	1.0	0	1	2.0	0	547	0	0	0	unknown
8	1	9	48	59908	2821	0.5455008164281026	0	1.0	1177.2425129965995	0.0			0	1.0	1	0	1.0	0	548	0	0	0	unknown
8	1	9	49	4284	4095	0.5455471080495043	0	1.0	1060.1413719996344	0.0			0	1.0	1	0	1.0	0	549	0	0	0	unknown
8	1	9	50	61696	4751	0.5455934036290273	1	1.0	1137.78078899486	0.0	328.0		1	1.0	0	1	2.0	0	550	0	0	0	unknown
8	1	9	51	67508	2755	0.5456397021189332	1	1.0	1960.3604609947067	0.0	67.0		1	1.0	0	1	2.0	0	551	0	0	0	unknown
8	1	9	52	24131	7655	0.5456859855912625	0	1.0	1460.8688419975806	0.0			0	1.0	1	0	1.0	0	552	0	0	0	unknown
8	1	9	53	24751	3807	0.5457322866423056	0	1.0	2902.318751999701	0.0			0	1.0	1	0	1.0	0	553	0	0	0	unknown
8	1	9	54	48198	3457	0.5457785725593566	1	1.0	902.8120479997597	0.0	267.0	353.0	1	1.0	0	1	2.0	0	554	0	0	0	unknown
8	1	9	55	63955	8109	0.5458711641840636	1	0.0	1091.7660730046919	0.0	115.0		1	0.0	1	0	1.0	0	555	0	0	0	unknown
8	1	9	56	16601	6054	0.5459174657007679	0	1.0	1202.2685629999614	0.0			0	1.0	1	0	1.0	0	556	0	0	0	unknown
8	1	9	57	64120	9508	0.5459637561580166	0	1.0	1112.8564389946405	0.0			0	1.0	1	0	1.0	0	557	0	0	0	unknown
8	1	9	58	66948	3768	0.5460100438212975	0	1.0	778.5523519996785	0.0			0	1.0	1	0	1.0	0	558	0	0	0	unknown
8	1	9	59	48331	6410	0.5460563441738486	0	1.0	1022.9426120058632	0.0			0	1.0	1	0	1.0	0	559	0	0	0	unknown
8	1	9	60	62415	2328	0.54610264103394	0	0.0	1621.1446420056743	0.0			0	0.0	0	1	2.0	0	560	0	0	0	unknown
8	1	9	61	24751	3807	0.5461489347508177	1	1.0	1429.6257169989983	0.0	7.0		1	1.0	0	1	2.0	0	561	0	0	0	unknown
8	1	9	62	55082	7697	0.5461952293990179	0	1.0	1405.6931540035291	0.0			0	1.0	1	0	1.0	0	562	0	0	0	unknown
8	1	9	63	11385	8816	0.5462415203219279	0	1.0	1672.715149994474	0.0			0	1.0	1	0	1.0	0	563	0	0	0	unknown
8	1	10	1	28475	3444	0.5478882265742868	1	1.0	1154.0590989970951	0.0	314.0	482.0	1	1.0	0	1	2.0	0	564	0	0	0	unknown
8	1	10	2	24594	7744	0.5479345319326967	0	1.0	1276.5417660048115	0.0			0	1.0	1	0	1.0	0	565	0	0	0	unknown
8	1	10	3	27341	6106	0.5479808141244575	1	1.0	1184.5673479983816	0.0	107.0	295.0	1	1.0	0	1	2.0	0	566	0	0	0	unknown
8	1	10	4	44588	1126	0.5480271226260811	0	1.0	1966.4412700003595	0.0			0	1.0	1	0	1.0	0	567	0	0	0	unknown
8	1	10	5	4178	7339	0.5480734019074589	0	1.0	1243.5107139972388	0.0			0	1.0	1	0	1.0	0	568	0	0	0	unknown
8	1	10	6	70140	2913	0.5481197136687114	0	1.0	1364.8790799998096	0.0			0	1.0	1	0	1.0	0	569	0	0	0	unknown
8	1	10	7	59899	7572	0.5481659964425489	0	1.0	803.1640300032451	0.0			0	1.0	1	0	1.0	0	570	0	0	0	unknown
8	1	10	8	23883	8516	0.5482122978428378	1	0.0	863.4004100022139	0.0	202.0		1	0.0	1	0	1.0	0	571	0	0	0	unknown
8	1	10	9	58913	6139	0.548258583410643	0	1.0	602.3127660009777	0.0			0	1.0	1	0	1.0	0	572	0	0	0	unknown
8	1	10	10	63004	9261	0.548351164208725	0	1.0	686.9194490063819	0.0			0	1.0	1	0	1.0	0	573	0	0	0	unknown
8	1	10	11	25782	8315	0.5483974713133648	1	1.0	930.9634140008712	0.0	167.0	175.0	1	1.0	0	1	2.0	0	574	0	0	0	unknown
8	1	10	12	3627	14	0.5484437559498474	0	1.0	1326.0738200042397	0.0			0	1.0	1	0	1.0	0	575	1	0	1	new
8	1	10	13	4192	5660	0.5484900561859831	1	1.0	1254.6836960027576	0.0	178.0		1	1.0	0	1	2.0	0	576	0	0	0	unknown
8	1	10	14	69979	6692	0.5485363390762358	1	1.0	945.1509950013133	0.0	143.0	398.0	1	1.0	0	1	2.0	0	577	0	0	0	unknown
8	1	10	15	27949	4211	0.5485826528165489	0	1.0	1747.6685580040792	0.0			0	1.0	1	0	1.0	0	578	0	0	0	unknown
8	1	10	16	56597	9571	0.5486289347754791	0	1.0	1101.815213005466	0.0			0	1.0	1	0	1.0	0	579	0	0	0	unknown
8	1	10	17	12116	9570	0.548675236175768	0	1.0	1575.0659390032524	0.0			0	1.0	1	0	1.0	0	580	0	0	0	unknown
8	1	10	18	70905	4400	0.5487215181346982	0	1.0	835.8852870005647	0.0			0	1.0	1	0	1.0	0	581	0	0	0	unknown
8	1	10	19	2801	8200	0.5487678195349872	0	0.0	1582.7198830011184	0.0			0	0.0	0	1	2.0	0	582	0	0	0	unknown
8	1	10	20	67400	5345	0.5488141064997762	0	1.0	1866.919758002041	0.0			0	1.0	1	0	1.0	0	583	0	0	0	unknown
8	1	10	21	19796	4585	0.5489066992886364	0	1.0	1390.3341680052108	0.0			0	1.0	1	0	1.0	0	584	0	0	0	unknown
8	1	10	22	8362	5081	0.5489530082559213	1	1.0	901.1062119971027	0.0	67.0	324.0	1	1.0	0	1	2.0	0	585	0	0	0	unknown
8	1	10	23	53223	7247	0.548999287537299	0	1.0	2043.355527006497	0.0			0	1.0	1	0	1.0	0	586	0	0	0	unknown
8	1	10	24	40664	5960	0.5490454798564314	0	1.0	1674.4861000042874	0.0			0	1.0	1	0	1.0	0	587	0	0	0	unknown
8	1	10	25	46478	6843	0.5490917800925672	1	1.0	867.2002079983939	0.0	244.0	485.0	1	1.0	0	1	2.0	0	588	0	0	0	unknown
8	1	10	26	61311	2726	0.549138065543957	0	1.0	1742.6564349952969	0.0			0	1.0	1	0	1.0	0	589	0	0	0	unknown
8	1	10	27	9560	4285	0.5491843635682016	1	1.0	930.5875830032163	0.0	141.0	403.0	1	1.0	0	1	2.0	0	590	0	0	0	unknown
8	1	10	28	19467	7449	0.549230653559789	0	1.0	1533.2868360055727	0.0			0	1.0	1	0	1.0	0	591	0	0	0	unknown
8	1	10	29	14339	3909	0.5492769561242312	0	1.0	1471.088050995604	0.0			0	1.0	1	0	1.0	0	592	0	0	0	unknown
8	1	10	30	49890	6194	0.549369535408914	0	1.0	1153.113221997046	0.0			0	1.0	1	0	1.0	0	593	0	0	0	unknown
8	1	10	31	52913	3376	0.5494158344808965	1	0.0	714.1871509957127	0.0	484.0		1	0.0	1	0	1.0	0	594	0	0	0	unknown
8	1	10	32	35596	3500	0.5494621300604194	0	1.0	754.4620480039157	0.0			0	1.0	1	0	1.0	0	595	0	0	0	unknown
8	1	10	33	24709	6752	0.5495084204012528	0	1.0	1502.7574359992286	0.0			0	1.0	1	0	1.0	0	596	0	0	0	unknown
8	1	10	34	59511	4739	0.549554725526832	0	1.0	1716.8346789985662	0.0			0	1.0	1	0	1.0	0	597	0	0	0	unknown
8	1	10	35	70029	3456	0.5496010158676654	0	1.0	781.2275109972688	0.0			0	1.0	1	0	1.0	0	598	0	0	0	unknown
8	1	10	36	19182	230	0.5496473021339625	1	1.0	904.4440650031901	0.0	89.0	164.0	1	1.0	0	1	2.0	0	599	1	0	3	easy
8	1	10	37	45596	616	0.5496936042327433	1	0.0	2362.2383270048886	0.0	253.0		1	0.0	1	0	1.0	0	600	1	1	2	easy
8	1	10	38	14529	173	0.549739900510758	0	1.0	1877.2352250016409	1.0			0	1.0	1	1	1.0	0	601	1	0	1	new
8	1	10	39	21985	2163	0.5497861925978214	0	1.0	1317.6290650008011	0.0			0	1.0	1	0	1.0	0	602	0	0	0	unknown
8	1	10	40	42825	9008	0.5498787816613911	0	1.0	962.1762680035315	0.0			0	1.0	1	0	1.0	0	603	0	0	0	unknown
8	1	10	41	15203	4465	0.549925073981285	0	1.0	744.6508740031277	0.0			0	1.0	1	0	1.0	0	604	0	0	0	unknown
8	1	10	42	67241	7198	0.5499713694443926	0	1.0	1063.9229899970815	0.0			0	1.0	1	0	1.0	0	605	0	0	0	unknown
8	1	10	43	53959	5817	0.5500176618807017	0						0		0	0		0	606	0	0	0	unknown
8	1	10	44	71216	6148	0.5500639572273939	0	1.0	822.5054229988018	0.0			0	1.0	1	0	1.0	0	607	0	0	0	unknown
8	1	10	45	5136	4356	0.5501102502457798	0	1.0	1193.1343479955103	0.0			0	1.0	1	0	1.0	0	608	0	0	0	unknown
8	1	10	46	11460	4186	0.5501565388403832	1	1.0	1018.3289760025218	0.0	494.0		1	1.0	0	1	2.0	0	609	0	0	0	unknown
8	1	10	47	3887	1703	0.5502028395421802	1	0.0	1507.322423000005	0.0	570.0		1	0.0	1	0	1.0	0	610	0	0	0	unknown
8	1	10	48	3713	9294	0.550249126390554	0	1.0	1605.8508060013992	0.0			0	1.0	1	0	1.0	0	611	0	0	0	unknown
8	1	10	49	13873	6311	0.5502953309332951	1	1.0	902.9036130013992	0.0	133.0	256.0	1	1.0	0	1	2.0	0	612	0	0	0	unknown
8	1	10	50	27858	9492	0.5503416169667616	0	1.0	1673.3194260013988	0.0			0	1.0	1	0	1.0	0	613	0	0	0	unknown
8	1	10	51	27418	8688	0.5503879191819578	0	1.0	1353.8721229997464	0.0			0	1.0	1	0	1.0	0	614	0	0	0	unknown
8	1	10	52	6865	3319	0.5504805020755156	0	1.0	949.5592050006961	0.0			0	1.0	1	0	1.0	0	615	0	0	0	unknown
8	1	10	53	30074	1769	0.5505268003325909	0	1.0	710.9730869997293	0.0			0	1.0	1	0	1.0	0	616	0	0	0	unknown
8	1	10	54	33072	8140	0.5505730888107792	0	1.0	793.8351609991514	0.0			0	1.0	1	0	1.0	0	617	0	0	0	unknown
8	1	10	55	4304	7561	0.5506193822948262	0	1.0	957.4844789967757	0.0			0	1.0	1	0	1.0	0	618	0	0	0	unknown
8	1	10	56	59767	2304	0.5506656854413449	0	1.0	770.7394160024705	0.0			0	1.0	1	0	1.0	0	619	0	0	0	unknown
8	1	10	57	7292	2481	0.550711976364255	0	1.0	807.5784319953526	0.0			0	1.0	1	0	1.0	0	620	0	0	0	unknown
8	1	10	58	59438	2880	0.5507582732243463	1	0.0	769.1696129986667	0.0	402.0		1	0.0	1	0	1.0	0	621	0	0	0	unknown
8	1	10	59	28037	2186	0.5508045674068853	1	0.0	2444.7728320010356	0.0	162.0		1	0.0	1	0	1.0	0	622	0	0	0	unknown
8	1	10	60	16335	2935	0.5508508599596098	0	0.0	803.6097049989621	0.0			0	0.0	0	1	2.0	0	623	0	0	0	unknown
8	1	10	61	44836	5193	0.5508971561212092	0	1.0	1077.985419993638	0.0			0	1.0	1	0	1.0	0	624	0	0	0	unknown
8	1	10	62	9918	116	0.5509434408741071	1	1.0	1456.9983319961464	0.0	267.0		1	1.0	0	1	2.0	0	625	1	0	2	easy
8	1	11	1	5648	9647	0.5527961689513176	0	1.0	1158.270857995376	0.0			0	1.0	1	0	1.0	0	626	0	0	0	unknown
8	1	11	2	40215	1791	0.5528424638323485	0	1.0	682.7338989969576	0.0			0	1.0	1	0	1.0	0	627	0	0	0	unknown
8	1	11	3	38916	1407	0.5528887568507344	0	1.0	669.3432890024269	0.0			0	1.0	1	0	1.0	0	628	0	0	0	unknown
8	1	11	4	56043	770	0.5529350524302572	0	1.0	802.2564630009582	0.0			0	1.0	1	0	1.0	0	629	1	0	1	new
8	1	11	5	12161	2830	0.5529813399771228	0	1.0	1070.9866090037394	0.0			0	1.0	1	0	1.0	0	630	0	0	0	unknown
8	1	11	6	3927	2129	0.5530276478966698	0	1.0	731.0451459998147	0.0			0	1.0	1	0	1.0	0	631	0	0	0	unknown
8	1	11	7	39512	2579	0.5530739328823983	0	1.0	755.3924149979138	0.0			0	1.0	1	0	1.0	0	632	0	0	0	unknown
8	1	11	8	58691	3014	0.5531202364945784	1	1.0	2057.3519250028767	1.0	444.0	540.0	1	1.0	1	1	2.0	0	633	0	0	0	unknown
8	1	11	9	34239	459	0.5531665143789724	0	0.0	1664.791706003598	0.0			0	0.0	0	1	2.0	0	634	1	0	1	new
8	1	11	10	43587	2642	0.553212821483612	0	1.0	1323.6976839980343	0.0			0	1.0	1	0	1.0	0	635	0	0	0	unknown
8	1	11	11	42858	8996	0.5532591105438768	0	1.0	1080.5205919969012	0.0			0	1.0	1	0	1.0	0	636	0	0	0	unknown
8	1	11	12	35053	5745	0.5533054162515327	1	1.0	1872.622656002932	0.0	114.0		1	1.0	0	1	2.0	0	637	0	0	0	unknown
8	1	11	13	72382	3410	0.5533979986794292	0	1.0	1271.4457200054312	0.0			0	1.0	1	0	1.0	0	638	0	0	0	unknown
8	1	11	14	54204	8116	0.5534442845964804	0	1.0	1550.3523419974952	0.0			0	1.0	1	0	1.0	0	639	0	0	0	unknown
8	1	11	15	8311	5733	0.5534905865788459	1	0.0	1422.802564004087	0.0	114.0		1	0.0	1	0	1.0	0	640	0	0	0	unknown
8	1	11	16	67969	3951	0.553536876454018	1	1.0	841.6499939994537	0.0	100.0	392.0	1	1.0	0	1	2.0	0	641	0	0	0	unknown
8	1	11	17	27051	1482	0.5535831798333674	0	1.0	1944.2510599983505	0.0			0	1.0	1	0	1.0	0	642	0	0	0	unknown
8	1	11	18	3392	4599	0.5536294629564508	0	1.0	983.0936220023434	0.0			0	1.0	1	0	1.0	0	643	0	0	0	unknown
8	1	11	19	10822	4040	0.5536757681984454	0	1.0	886.3212470023427	0.0			0	1.0	1	0	1.0	0	644	0	0	0	unknown
8	1	11	20	7850	4982	0.553722045966424	0	1.0	1228.5151020041667	0.0			0	1.0	1	0	1.0	0	645	0	0	0	unknown
8	1	11	21	4498	8474	0.5537683522561565	0	1.0	802.3217919981107	0.0			0	1.0	1	0	1.0	0	646	0	0	0	unknown
8	1	11	22	42125	9657	0.553814633982256	1	1.0	1203.3949309989111	0.0	321.0		1	1.0	0	1	2.0	0	647	0	0	0	unknown
8	1	11	23	11514	6168	0.5539072270039469	0	1.0	1615.8503929982544	0.0			0	1.0	1	0	1.0	0	648	0	0	0	unknown
8	1	11	24	62140	6537	0.5539535174611955	0	1.0	1540.2472790010506	0.0			0	1.0	1	0	1.0	0	649	0	0	0	unknown
8	1	11	25	68425	4759	0.5539998097810894	0	1.0	2572.7577820071015	0.0			0	1.0	1	0	1.0	0	650	0	0	0	unknown
8	1	11	26	7253	5514	0.5540461288765072	1				171.0		1		0	0		0	651	0	0	0	unknown
8	1	11	27	22009	4620	0.5540923079242929	0	1.0	869.7110790017177	0.0			0	1.0	1	0	1.0	0	652	0	0	0	unknown
8	1	11	28	68084	7333	0.5541386049007996	0	1.0	1068.692683998961	0.0			0	1.0	1	0	1.0	0	653	0	0	0	unknown
8	1	11	29	51774	1069	0.5541848995489999	0	1.0	2469.095111999195	0.0			0	1.0	1	0	1.0	0	654	0	0	0	unknown
8	1	11	30	53507	1218	0.5542311891913414	0	1.0	1150.0241749963607	0.0			0	1.0	1	0	1.0	0	655	0	0	0	unknown
8	1	11	31	55634	1512	0.5542774813948199	0	1.0	984.5722000027308	0.0			0	1.0	1	0	1.0	0	656	0	0	0	unknown
8	1	11	32	3392	4599	0.5543237775564193	1	1.0	967.4339749981301	0.0	13.0		1	1.0	0	1	2.0	0	657	0	0	0	unknown
8	1	11	33	31256	1040	0.5543700720882043	0	1.0	932.6229819998845	0.0			0	1.0	1	0	1.0	0	658	0	0	0	unknown
8	1	11	34	36899	1624	0.5544163596350699	1	1.0	1428.6416789982468	0.0	139.0		1	1.0	0	1	2.0	0	659	0	0	0	unknown
8	1	11	35	40170	1808	0.554508947301656	1	1.0	1602.9933669997263	0.0	333.0		1	1.0	0	1	2.0	0	660	0	0	0	unknown
8	1	11	36	21675	4690	0.5545552483526989	0	1.0	841.8886840008781	0.0			0	1.0	1	0	1.0	0	661	0	0	0	unknown
8	1	11	37	54633	5019	0.5546015411382541	0	1.0	1517.8810229990631	0.0			0	1.0	1	0	1.0	0	662	0	0	0	unknown
8	1	11	38	46935	5219	0.5546478372998535	0	1.0	752.07990600029	0.0			0	1.0	1	0	1.0	0	663	0	0	0	unknown
8	1	11	39	48831	9102	0.5546941317152231	0	1.0	779.5892720023403	0.0			0	1.0	1	0	1.0	0	664	0	0	0	unknown
8	1	11	40	62883	9621	0.5547404249664396	1	0.0	1673.246549005853	0.0	547.0		1	0.0	1	0	1.0	0	665	0	0	0	unknown
8	1	11	41	27618	5874	0.5547867122804746	0	1.0	861.4155080067576	0.0			0	1.0	1	0	1.0	0	666	0	0	0	unknown
8	1	11	42	14122	169	0.5548330061137676	0	1.0	1281.421102998138	0.0			0	1.0	1	0	1.0	0	667	1	0	1	new
8	1	11	43	36399	9088	0.5548793082125484	1	0.0	842.9052699939347	0.0	122.0		1	0.0	1	0	1.0	0	668	0	0	0	unknown
8	1	11	44	60999	4637	0.5549718933179973	0	1.0	1025.8036199957132	0.0			0	1.0	1	0	1.0	0	669	0	0	0	unknown
8	1	11	45	38058	4522	0.5550181911094114	0	1.0	773.9530980034032	0.0			0	1.0	1	0	1.0	0	670	0	0	0	unknown
8	1	11	46	7641	7224	0.555064476444386	0	1.0	757.1175000048241	0.0			0	1.0	1	0	1.0	0	671	0	0	0	unknown
8	1	11	47	54276	3822	0.5551107785431668	0	1.0	912.478715996258	0.0			0	1.0	1	0	1.0	0	672	0	0	0	unknown
8	1	11	48	34094	6407	0.5551570721436291	0	1.0	745.0877549999859	0.0			0	1.0	1	0	1.0	0	673	0	0	0	unknown
8	1	11	49	50838	8393	0.5552033588755875	0	1.0	840.1709370009485	0.0			0	1.0	1	0	1.0	0	674	0	0	0	unknown
8	1	11	50	54204	8116	0.5552496594609692	1	1.0	1824.5729799964463	0.0	35.0		1	1.0	0	1	2.0	0	675	0	0	0	unknown
8	1	11	51	36494	2044	0.5552959555061534	0	1.0	1903.9054129971191	0.0			0	1.0	1	0	1.0	0	676	0	0	0	unknown
8	1	11	52	42568	3862	0.5553421470103785	1	1.0	1503.8619190017923	0.0	247.0		1	1.0	0	1	2.0	0	677	0	0	0	unknown
8	1	11	53	55263	8019	0.5553884423570707	0	1.0	906.3226799989934	0.0			0	1.0	1	0	1.0	0	678	0	0	0	unknown
8	1	11	54	38916	1407	0.5554810278117656	1	1.0	1483.5132070002146	0.0	50.0		1	1.0	0	1	2.0	0	679	0	0	0	unknown
8	1	11	55	57165	7367	0.5555273258360102	1	1.0	888.6678740018397	0.0	589.0		1	1.0	0	1	2.0	0	680	0	0	0	unknown
8	1	11	56	41257	8706	0.5555736215319484	0	1.0	1062.5505659991177	0.0			0	1.0	1	0	1.0	0	681	0	0	0	unknown
8	1	11	57	39976	2753	0.5556199204875156	0	1.0	2907.7147259959015	0.0			0	1.0	1	0	1.0	0	682	0	0	0	unknown
8	1	11	58	57180	3802	0.5556662045419216	0	1.0	1181.3578959990991	0.0			0	1.0	1	0	1.0	0	683	0	0	0	unknown
8	1	11	59	42125	9657	0.555712505360134	1	1.0	860.8973380032694	0.0	36.0	358.0	1	1.0	0	1	2.0	0	684	0	0	0	unknown
8	1	11	60	12090	5714	0.5557587929069995	1	1.0	1221.8236480039195	0.0	191.0	390.0	1	1.0	0	1	2.0	0	685	0	0	0	unknown
8	1	11	61	26352	347	0.5558050939580425	0	1.0	901.7799509965697	0.0			0	1.0	1	0	1.0	0	686	1	0	1	new
8	1	11	62	38058	4522	0.555851390119642	1	1.0	974.734035997244	0.0	16.0		1	1.0	0	1	2.0	0	687	0	0	0	unknown
8	1	11	63	4071	5102	0.5558976777829229	0	1.0	1260.995094999089	0.0			0	1.0	1	0	1.0	0	688	0	0	0	unknown
8	1	12	1	47577	1122	0.5574297198327258	0	1.0	1185.0238950064522	0.0			0	1.0	1	0	1.0	0	689	0	0	0	unknown
8	1	12	2	4787	36	0.5574760182062163	1	0.0	849.2694000015035	0.0	286.0		1	0.0	1	0	1.0	0	690	1	0	2	easy
8	1	12	3	10600	5273	0.5575223084306344	0	1.0	702.6187610026682	0.0			0	1.0	1	0	1.0	0	691	0	0	0	unknown
8	1	12	4	39380	9335	0.5575686157681047	1	1.0	1482.41140099708	0.0	269.0		1	1.0	0	1	2.0	0	692	0	0	0	unknown
8	1	12	5	72382	3410	0.557614897028543	1	1.0	1132.7792030060664	0.0	54.0		1	1.0	0	1	2.0	0	693	0	0	0	unknown
8	1	12	6	70011	5670	0.5576612011063843	0	1.0	929.8311070015187	0.0			0	1.0	1	0	1.0	0	694	0	0	0	unknown
8	1	12	7	38931	5449	0.5577074852772057	0	1.0	1014.4698080039232	0.0			0	1.0	1	0	1.0	0	695	0	0	0	unknown
8	1	12	8	52199	4580	0.5577537833014503	0	0.0	1377.5849800003923	0.0			0	0.0	0	1	2.0	0	696	0	0	0	unknown
8	1	12	9	70819	1994	0.5578000753885135	0	1.0	1202.0897160036839	0.0			0	1.0	1	0	1.0	0	697	0	0	0	unknown
8	1	12	10	55277	1386	0.5578462723642587	0	1.0	872.8677600010996	0.0			0	1.0	1	0	1.0	0	698	0	0	0	unknown
8	1	12	11	5796	9828	0.557892566663213	0	1.0	1003.8735530033592	0.0			0	1.0	1	0	1.0	0	699	0	0	0	unknown
8	1	12	12	2664	9484	0.557938860845752	1	1.0	973.0225140010589	0.0	371.0		1	1.0	0	1	2.0	0	700	0	0	0	unknown
8	1	12	13	44479	1490	0.5579851468792185	0	1.0	1257.2594249941176	0.0			0	1.0	1	0	1.0	0	701	0	0	0	unknown
8	1	12	14	11160	131	0.5580777353607118	0	1.0	732.2496339984353	0.0			0	1.0	1	0	1.0	0	702	1	0	1	new
8	1	12	15	7477	5518	0.5581240295432507	0	0.0	1653.4759309943183	0.0			0	0.0	0	1	2.0	0	703	0	0	0	unknown
8	1	12	16	5138	1103	0.5581703330390155	0	1.0	975.6919970022864	0.0			0	1.0	1	0	1.0	0	704	0	0	0	unknown
8	1	12	17	31649	5354	0.5582166176754981	0	1.0	872.8883309959201	0.0			0	1.0	1	0	1.0	0	705	0	0	0	unknown
8	1	12	18	48727	8405	0.558262919425033	0	1.0	1259.008849003294	0.0			0	1.0	1	0	1.0	0	706	0	0	0	unknown
8	1	12	19	60584	4272	0.5583092084852977	0	0.0	943.649913999252	0.0			0	0.0	0	1	2.0	0	707	0	0	0	unknown
8	1	12	20	24273	9513	0.5583555067423731	0	0.0	2149.8158989998046	0.0			0	0.0	0	1	2.0	0	708	0	0	0	unknown
8	1	12	21	54833	7408	0.5584017937071621	0	1.0	1003.8075510019552	0.0			0	1.0	1	0	1.0	0	709	0	0	0	unknown
8	1	12	22	70140	2913	0.5584480960387735	1	1.0	1220.3416830016067	0.0	140.0		1	1.0	0	1	2.0	0	710	0	0	0	unknown
8	1	12	23	27860	1834	0.558494382421486	0	1.0	1489.6202870004345	0.0			0	1.0	1	0	1.0	0	711	0	0	0	unknown
8	1	12	24	29136	7141	0.558586970786564	0	1.0	1241.7445649989531	0.0			0	1.0	1	0	1.0	0	712	0	0	0	unknown
8	1	12	25	14892	1784	0.5586332730017602	0	1.0	805.4609450045973	0.0			0	1.0	1	0	1.0	0	713	0	0	0	unknown
8	1	12	26	31105	3880	0.558679558802396	0	1.0	1011.508634997881	0.0			0	1.0	1	0	1.0	0	714	0	0	0	unknown
8	1	12	27	38916	1407	0.5587258521700277	1	1.0	2539.6729720014264	0.0	35.0	86.0	1	1.0	0	1	2.0	0	715	0	0	0	unknown
8	1	12	28	69843	5778	0.5587721541523933	0	1.0	1202.2387899996827	0.0			0	1.0	1	0	1.0	0	716	0	0	0	unknown
8	1	12	29	62428	5306	0.5588184472871944	0	1.0	1463.6346789993695	0.0			0	1.0	1	0	1.0	0	717	0	0	0	unknown
8	1	12	30	40696	6677	0.5588647356489673	0	1.0	881.0222040046938	0.0			0	1.0	1	0	1.0	0	718	0	0	0	unknown
8	1	12	31	17393	6378	0.5589110369328409	0	1.0	1524.7583710006438	0.0			0	1.0	1	0	1.0	0	719	0	0	0	unknown
8	1	12	32	8855	2451	0.5589573314646258	1	0.0	1385.5642880007508	0.0	305.0		1	0.0	1	0	1.0	0	720	0	0	0	unknown
8	1	12	33	54276	3822	0.5590036166831851	1	1.0	1192.645501003426	1.0	48.0		1	1.0	1	1	2.0	0	721	0	0	0	unknown
8	1	12	34	36637	5870	0.5590962133137509	0	1.0	950.4769839986691	0.0			0	1.0	1	0	1.0	0	722	0	0	0	unknown
8	1	12	35	69477	2567	0.55914241168648	0	0.0	891.4076099972589	0.0			0	0.0	0	1	2.0	0	723	0	0	0	unknown
8	1	12	36	59998	1446	0.5591887030750513	0	1.0	1214.456407004036	0.0			0	1.0	1	0	1.0	0	724	0	0	0	unknown
8	1	12	37	14529	173	0.5592350002843886	1	1.0	1775.3936709996196	0.0	123.0		1	1.0	0	1	2.0	0	725	1	0	2	easy
8	1	12	38	51130	5360	0.5592812945833429	0	1.0	832.5607189981382	0.0			0	1.0	1	0	1.0	0	726	0	0	0	unknown
8	1	12	39	11514	6168	0.5593275795690715	1	1.0	2442.358911001065	1.0	78.0		1	1.0	1	1	2.0	0	727	0	0	0	unknown
8	1	12	40	3392	4599	0.5593738835304976	1	1.0	1165.0313949940028	0.0	70.0	84.0	1	1.0	0	1	2.0	0	728	0	0	0	unknown
8	1	12	41	67179	4614	0.5594201768981292	0	1.0	1129.2678140016503	0.0			0	1.0	1	0	1.0	0	729	0	0	0	unknown
8	1	12	42	20306	8417	0.5594664722448214	0	1.0	1520.3945149987703	0.0			0	1.0	1	0	1.0	0	730	0	0	0	unknown
8	1	12	43	48379	2034	0.5595590585144236	0	1.0	722.6968070026486	0.0			0	1.0	1	0	1.0	0	731	0	0	0	unknown
8	1	12	44	29838	398	0.5596053447807207	0	1.0	1180.5618449943722	0.0			0	1.0	1	0	1.0	0	732	1	0	1	new
8	1	12	45	14210	8629	0.5596516421064734	0	1.0	914.7477919977971	0.0			0	1.0	1	0	1.0	0	733	0	0	0	unknown
8	1	12	46	9587	1411	0.559697941178456	0	1.0	1255.366249999497	0.0			0	1.0	1	0	1.0	0	734	0	0	0	unknown
8	1	12	47	61304	2152	0.5597442300058901	0						0		0	0		0	735	0	0	0	unknown
8	1	12	48	13078	6858	0.559790527098812	0	1.0	812.7719770054682	0.0			0	1.0	1	0	1.0	0	736	0	0	0	unknown
8	1	12	49	26908	9391	0.5598368237260729	0	1.0	677.5576879954315	0.0			0	1.0	1	0	1.0	0	737	0	0	0	unknown
8	1	12	50	31649	5354	0.5598831205861642	1	1.0	1002.7519460054464	0.0	32.0		1	1.0	0	1	2.0	0	738	0	0	0	unknown
8	1	12	51	58145	805	0.5599294123239815	1	1.0	1324.5118740014732	0.0	240.0		1	1.0	0	1	2.0	0	739	1	0	2	easy
8	1	12	52	11446	4665	0.5600219945190474	0	1.0	2353.6361070000567	0.0			0	1.0	1	0	1.0	0	740	0	0	0	unknown
8	1	12	53	4304	7561	0.5600682951044291	1	1.0	1145.2743589979943	0.0	122.0		1	1.0	0	1	2.0	0	741	0	0	0	unknown
8	1	12	54	5017	8160	0.5601145797409117	0						0		0	0		0	742	0	0	0	unknown
8	1	12	55	46332	2161	0.5601608852157369	0	1.0	1746.756701999402	0.0			0	1.0	1	0	1.0	0	743	0	0	0	unknown
8	1	12	56	46797	7903	0.5602071719476953	0	1.0	1276.493636003579	0.0			0	1.0	1	0	1.0	0	744	0	0	0	unknown
8	1	12	57	14916	7560	0.560253468574956	0	1.0	940.706556000805	0.0			0	1.0	1	0	1.0	0	745	0	0	0	unknown
8	1	12	58	2076	2370	0.5602997655514627	0	1.0	1003.0404810022446	0.0			0	1.0	1	0	1.0	0	746	0	0	0	unknown
8	1	12	59	27758	2563	0.5603459548437967	0	1.0	837.387726001907	0.0			0	1.0	1	0	1.0	0	747	0	0	0	unknown
8	1	12	60	48682	670	0.5603922501904889	0	1.0	631.3394190001418	0.0			0	1.0	1	0	1.0	0	748	1	0	1	new
8	1	12	61	71246	9409	0.5604385514743626	0	1.0	736.2109270034125	0.0			0	1.0	1	0	1.0	0	749	0	0	0	unknown
8	1	12	62	3217	9681	0.5604848383227363	0	1.0	766.573540000536	0.0			0	1.0	1	0	1.0	0	750	0	0	0	unknown
8	2	1	1	17670	8819	12.522148925345393	0	1.0	1803.1397160011688	0.0			0	1.0	1	0	1.0	0	751	0	0	0	unknown
8	2	1	2	51607	2972	12.522195216733962	0	1.0	964.3688479991396	0.0			0	1.0	1	0	1.0	0	752	0	0	0	unknown
8	2	1	3	14595	175	12.52224150521215	0	1.0	707.9299660035758	0.0			0	1.0	1	0	1.0	0	753	1	0	1	new
8	2	1	4	17632	6169	12.522287797997704	1	0.0	1093.4054370009108	0.0	219.0		0	1.0	1	0	1.0	0	754	0	0	0	unknown
8	2	1	5	58271	1591	12.522334094508553	0	1.0	1506.4672599983169	0.0			0	1.0	1	0	1.0	0	755	0	0	0	unknown
8	2	1	6	785	4692	12.522380396490917	0	1.0	1356.8285870060208	0.0			0	1.0	1	0	1.0	0	756	0	0	0	unknown
8	2	1	7	31794	4152	12.522426689509302	0	1.0	1249.7373449950828	0.0			0	1.0	1	0	1.0	0	757	0	0	0	unknown
8	2	1	8	30120	7167	12.522472986020148	0	1.0	2436.014899998554	0.0			0	1.0	1	0	1.0	0	758	0	0	0	unknown
8	2	1	9	15203	4465	12.522519276943056	1	0.0	1747.575601999415	0.0	154.0		0	1.0	1	0	1.0	0	759	0	0	0	unknown
8	2	1	10	63562	5313	12.52256557077635	0	1.0	2842.6351819944102	0.0			0	1.0	1	0	1.0	0	760	0	0	0	unknown
8	2	1	11	24481	305	12.52261186565738	0	1.0	1661.618124002416	0.0			0	1.0	1	0	1.0	0	761	1	0	1	new
8	2	1	12	58786	9575	12.522658152272925	1	1.0	1449.1202550052549	0.0	346.0		0	0.0	0	1	2.0	0	762	0	0	0	unknown
8	2	1	13	36975	487	12.522704453673212	0	1.0	1070.062561004306	0.0			0	1.0	1	0	1.0	0	763	1	1	1	new
8	2	1	14	23177	3997	12.522750738309696	0	0.0	1410.9575019974727	0.0			0	0.0	0	1	2.0	0	764	0	0	0	unknown
8	2	1	15	65970	7390	12.522843335755168	1	0.0	1461.96093600156	0.0	233.0		0	1.0	1	0	1.0	0	765	0	0	0	unknown
8	2	1	16	45836	1277	12.522889628540725	0	1.0	841.2742569998953	0.0			0	1.0	1	0	1.0	0	766	0	0	0	unknown
8	2	1	17	13222	2195	12.522935923887417	0	1.0	1658.35155199602	0.0			0	1.0	1	0	1.0	0	767	0	0	0	unknown
8	2	1	18	27634	5101	12.522982217371464	0	1.0	869.7352429953754	0.0			0	1.0	1	0	1.0	0	768	0	0	0	unknown
8	2	1	19	3300	1826	12.523028513765892	0	1.0	856.5296890010359	0.0			0	1.0	1	0	1.0	0	769	0	0	0	unknown
8	2	1	20	58271	1591	12.523074710275976	1	1.0	1181.6741549992003	0.0	14.0		1	1.0	0	1	2.0	0	770	0	0	0	unknown
8	2	1	21	62215	2080	12.523120999452656	0	1.0	1029.2974800031516	0.0			0	1.0	1	0	1.0	0	771	0	0	0	unknown
8	2	1	22	49478	3804	12.523167289677076	0	1.0	944.3109200001344	0.0			0	1.0	1	0	1.0	0	772	0	0	0	unknown
8	2	1	23	44381	2773	12.523213591310196	0	1.0	1205.567240001983	0.0			0	1.0	1	0	1.0	0	773	0	0	0	unknown
8	2	1	24	67400	5345	12.523306175251491	1	0.0	1724.507419996371	0.0	190.0		0	1.0	1	0	1.0	0	774	0	0	0	unknown
8	2	1	25	63862	7130	12.523352474090643	1	0.0	1362.1668599953407	0.0	336.0	497.0	0	1.0	1	0	1.0	0	775	0	0	0	unknown
8	2	1	26	68726	3770	12.523398766992612	1	0.0	1836.278183000104	0.0	646.0		0	1.0	1	0	1.0	0	776	0	0	0	unknown
8	2	1	27	55277	1386	12.523445054772308	1	0.0	1163.5152969975024	0.0	78.0		0	1.0	1	0	1.0	0	777	0	0	0	unknown
8	2	1	28	13818	9317	12.523491351050325	0	1.0	938.7594720028573	0.0			0	1.0	1	0	1.0	0	778	0	0	0	unknown
8	2	1	29	5984	8105	12.5235376462806	0	1.0	1736.8626879979274	0.0			0	1.0	1	0	1.0	0	779	0	0	0	unknown
8	2	1	30	48407	8280	12.523583944537677	1	0.0	1602.0363710049423	0.0	413.0		0	1.0	1	0	1.0	0	780	0	0	0	unknown
8	2	1	31	36911	485	12.523630230571143	0	1.0	902.4688839999726	0.0			0	1.0	1	0	1.0	0	781	1	0	1	new
8	2	1	32	16703	200	12.523676529177465	0	1.0	1661.4424610015703	0.0			0	1.0	1	0	1.0	0	782	1	0	1	new
8	2	1	33	44903	9130	12.523722818819804	0	1.0	1051.88665100286	0.0			0	1.0	1	0	1.0	0	783	0	0	0	unknown
8	2	1	34	70805	2587	12.523769118008204	0	1.0	1076.8588299979456	0.0			0	1.0	1	0	1.0	0	784	0	0	0	unknown
8	2	1	35	11938	2904	12.523815412190743	0	1.0	1429.99938599678	0.0			0	1.0	1	0	1.0	0	785	0	0	0	unknown
8	2	1	36	46271	4239	12.523907995666375	0	1.0	1406.035084000905	0.0			0	1.0	1	0	1.0	0	786	0	0	0	unknown
8	2	1	37	59066	8001	12.523954289383253	0	1.0	823.5330829993472	0.0			0	1.0	1	0	1.0	0	787	0	0	0	unknown
8	2	1	38	64938	3312	12.524000586010516	0	1.0	1010.7817309981328	0.0			0	1.0	1	0	1.0	0	788	0	0	0	unknown
8	2	1	39	62539	6903	12.52404688578099	0	1.0	1248.0868920029025	0.0			0	1.0	1	0	1.0	0	789	0	0	0	unknown
8	2	1	40	63562	5313	12.524093173327856	1	1.0	938.8436549998005	0.0	29.0		1	1.0	0	1	2.0	0	790	0	0	0	unknown
8	2	1	41	60025	5567	12.524139469256625	0	1.0	1656.2687490004464	0.0			0	1.0	1	0	1.0	0	791	0	0	0	unknown
8	2	1	42	16767	9012	12.524185763904825	0	1.0	1156.9675100035963	0.0			0	1.0	1	0	1.0	0	792	0	0	0	unknown
8	2	1	43	18906	5208	12.524232059717178	0	1.0	1217.461659995024	0.0			0	1.0	1	0	1.0	0	793	0	0	0	unknown
8	2	1	44	11554	3475	12.524278257857077	0	1.0	2175.4189350031083	0.0			0	1.0	1	0	1.0	0	794	0	0	0	unknown
8	2	1	45	42773	2336	12.524324555182828	1	1.0	2186.655762998271	0.0	366.0	433.0	0	0.0	0	1	2.0	0	795	0	0	0	unknown
8	2	1	46	42825	9008	12.524417137843557	1	1.0	1465.5917929994755	0.0	192.0		0	0.0	0	1	2.0	0	796	0	0	0	unknown
8	2	1	47	49548	7974	12.524463440990075	1	0.0	1822.1520259976387	0.0	333.0	539.0	0	1.0	1	0	1.0	0	797	0	0	0	unknown
8	2	1	48	49139	8441	12.524509733309968	1	0.0	1307.0160189963644	0.0	582.0		0	1.0	1	0	1.0	0	798	0	0	0	unknown
8	2	1	49	5603	53	12.52455602644477	1	0.0	903.2485130010173	0.0	565.0		0	1.0	1	0	1.0	0	799	1	0	2	hard
8	2	1	50	3627	14	12.524602320045233	1	0.0	2002.9229060019131	0.0	224.0		0	1.0	1	0	1.0	0	800	1	0	2	hard
8	2	1	51	16565	2255	12.524648612714373	1	0.0	2420.9638059983263	0.0	256.0		0	1.0	1	0	1.0	0	801	0	0	0	unknown
8	2	1	52	65732	4096	12.524694905965587	0	1.0	1076.5386649945867	0.0			0	1.0	1	0	1.0	0	802	0	0	0	unknown
8	2	1	53	61749	848	12.524741198285483	0	1.0	1514.412042000913	0.0			0	1.0	1	0	1.0	0	803	1	0	1	new
8	2	1	54	72898	4139	12.524787492817268	0	1.0	1334.7290780002368	0.0			0	1.0	1	0	1.0	0	804	0	0	0	unknown
8	2	1	55	988	9969	12.524880080018193	0	1.0	1388.8568629990912	0.0			0	1.0	1	0	1.0	0	805	0	0	0	unknown
8	2	1	56	67658	5604	12.524926368379964	0	0.0	1804.3306300023687	0.0			0	0.0	0	1	2.0	0	806	0	0	0	unknown
8	2	1	57	49151	5629	12.52497266291175	0	0.0	2880.0313859974262	0.0			0	0.0	0	1	2.0	0	807	0	0	0	unknown
8	2	1	58	10821	5555	12.52501896081958	0	1.0	875.8936469967011	0.0			0	1.0	1	0	1.0	0	808	0	0	0	unknown
8	2	1	59	8007	86	12.525065256631931	0	0.0	1538.2670399994822	0.0			0	0.0	0	1	2.0	0	809	1	0	1	new
8	2	1	60	32516	7292	12.525111553724855	0	1.0	936.3135329986109	0.0			0	1.0	1	0	1.0	0	810	0	0	0	unknown
8	2	1	61	61482	2391	12.525157843832856	0	1.0	1451.541114001884	0.0			0	1.0	1	0	1.0	0	811	0	0	0	unknown
8	2	1	62	28738	1282	12.525204141973516	0	1.0	961.5057299961337	0.0			0	1.0	1	0	1.0	0	812	0	0	0	unknown
8	2	1	63	61304	2152	12.525250438950025	1	0.0	1051.0086360009154	0.0	77.0		0	1.0	1	0	1.0	0	813	0	0	0	unknown
8	2	2	1	65284	7785	12.526826348272152	0	0.0	1632.041544005915	0.0			0	0.0	0	1	2.0	0	814	0	0	0	unknown
8	2	2	2	32341	4946	12.52687268157024	0	1.0	1616.30202899687	0.0			0	1.0	1	0	1.0	0	815	0	0	0	unknown
8	2	2	3	15409	6483	12.52691894385498	0	1.0	1002.095976997225	0.0			0	1.0	1	0	1.0	0	816	0	0	0	unknown
8	2	2	4	57453	1436	12.526965279248545	0	1.0	1105.544069003372	0.0			0	1.0	1	0	1.0	0	817	0	0	0	unknown
8	2	2	5	46585	6808	12.527011531288736	0	1.0	1014.2562120017828	0.0			0	1.0	1	0	1.0	0	818	0	0	0	unknown
8	2	2	6	55056	6129	12.527057875529861	0	1.0	2004.6360139967876	0.0			0	1.0	1	0	1.0	0	819	0	0	0	unknown
8	2	2	7	45756	3625	12.527104108943604	0	0.0	1406.2076749978587	1.0			0	0.0	1	1	2.0	0	820	0	0	0	unknown
8	2	2	8	27383	4127	12.527150459471159	0	1.0	942.4186339965672	0.0			0	1.0	1	0	1.0	0	821	0	0	0	unknown
8	2	2	9	4787	36	12.527196700451896	1	0.0	928.4808520023946	0.0	131.0	418.0	0	1.0	1	0	1.0	0	822	1	0	3	hard
8	2	2	10	45756	3625	12.527243055286815	1	1.0	945.025289998739	0.0	2.0		1	1.0	0	1	2.0	0	823	0	0	0	unknown
8	2	2	11	8976	8509	12.527335651917385	0	0.0	3103.749011002946	0.0			0	0.0	0	1	2.0	0	824	0	0	0	unknown
8	2	2	12	36303	7629	12.52738188765943	0	1.0	1263.626651998493	0.0			0	1.0	1	0	1.0	0	825	0	0	0	unknown
8	2	2	13	53507	1218	12.527428248198701	1	0.0	1559.4125569987227	0.0	170.0		0	1.0	1	0	1.0	0	826	0	0	0	unknown
8	2	2	14	48331	6410	12.527474472648464	1	0.0	1002.3139019976952	0.0	267.0		0	1.0	1	0	1.0	0	827	0	0	0	unknown
8	2	2	15	13139	159	12.52752084552776	0	1.0	1136.052589994506	0.0			0	1.0	1	0	1.0	0	828	1	1	1	new
8	2	2	16	36911	485	12.52756706054788	1	1.0	1577.1525610034587	0.0	47.0		1	1.0	0	1	2.0	0	829	1	0	2	easy
8	2	2	17	38515	3127	12.527613441576248	0	1.0	2174.847593996674	0.0			0	1.0	1	0	1.0	0	830	0	0	0	unknown
8	2	2	18	18822	9744	12.527659651706927	0	0.0	2088.801851998141	0.0			0	0.0	0	1	2.0	0	831	0	0	0	unknown
8	2	2	19	35722	3412	12.527706033783032	0	1.0	918.4672390038032	0.0			0	1.0	1	0	1.0	0	832	0	0	0	unknown
8	2	2	20	57328	9461	12.527752236579545	0	0.0	1807.2698269970715	0.0			0	0.0	0	1	2.0	0	833	0	0	0	unknown
8	2	2	21	22009	4620	12.5278448224999	1	0.0	1402.4994860010338	0.0	181.0		0	1.0	1	0	1.0	0	834	0	0	0	unknown
8	2	2	22	64795	4250	12.527891120291317	0	1.0	1102.425506003783	0.0			0	1.0	1	0	1.0	0	835	0	0	0	unknown
8	2	2	23	11385	8816	12.527937411447056	1	0.0	1245.0504160005949	0.0	272.0		0	1.0	1	0	1.0	0	836	0	0	0	unknown
8	2	2	24	70805	2587	12.52798371866811	1	1.0	2257.6992790054646	0.0	52.0		1	1.0	0	1	2.0	0	837	0	0	0	unknown
8	2	2	25	63744	7627	12.528029996203259	0	1.0	1804.2551529943007	0.0			0	1.0	1	0	1.0	0	838	0	0	0	unknown
8	2	2	26	25455	327	12.528076232178137	0	1.0	1214.5694049977465	0.0			0	1.0	1	0	1.0	0	839	1	0	1	new
8	2	2	27	5532	7054	12.528122490621172	0	0.0	1473.352027001965	0.0			0	0.0	0	1	2.0	0	840	0	0	0	unknown
8	2	2	28	36750	6637	12.528168782358987	0	1.0	786.6617890031193	0.0			0	1.0	1	0	1.0	0	841	0	0	0	unknown
8	2	2	29	618	4945	12.52821508119814	0	1.0	761.382176002371	0.0			0	1.0	1	0	1.0	0	842	0	0	0	unknown
8	2	2	30	22227	3524	12.528261372237466	0	1.0	1167.1357310042367	0.0			0	1.0	1	0	1.0	0	843	0	0	0	unknown
8	2	2	31	28018	8854	12.528307661414146	0	1.0	2109.0486450048047	0.0			0	1.0	1	0	1.0	0	844	0	0	0	unknown
8	2	2	32	54276	3822	12.528353964095004	1	0.0	1621.2886110006364	0.0	123.0	172.0	0	1.0	1	0	1.0	0	845	0	0	0	unknown
8	2	2	33	14529	173	12.528400256182069	1	0.0	819.907217999571	0.0	120.0	244.0	0	1.0	1	0	1.0	0	846	1	0	3	hard
8	2	2	34	42220	3975	12.528492847690359	0	1.0	1028.3913470047992	0.0			0	1.0	1	0	1.0	0	847	0	0	0	unknown
8	2	2	35	32011	8077	12.52853914280422	0	1.0	936.2508100020931	0.0			0	1.0	1	0	1.0	0	848	0	0	0	unknown
8	2	2	36	1610	3935	12.528585432795808	0	1.0	1409.4347750069571	0.0			0	1.0	1	0	1.0	0	849	0	0	0	unknown
8	2	2	37	18906	5208	12.528631722321732	1	1.0	2313.8538659986807	0.0	56.0		1	1.0	0	1	2.0	0	850	0	0	0	unknown
8	2	2	38	52168	3179	12.528678020113148	0	1.0	920.9293390013044	0.0			0	1.0	1	0	1.0	0	851	0	0	0	unknown
8	2	2	39	57757	1189	12.528724311618134	0	0.0	1111.146971998096	0.0			0	0.0	0	1	2.0	0	852	0	0	0	unknown
8	2	2	40	57380	8403	12.528770609758794	0	1.0	2324.4169760000655	0.0			0	1.0	1	0	1.0	0	853	0	0	0	unknown
8	2	2	41	35664	1776	12.52881690475624	0	1.0	2344.2584200020065	0.0			0	1.0	1	0	1.0	0	854	0	0	0	unknown
8	2	2	42	69825	4187	12.528863198007455	0	1.0	1651.9368139997823	0.0			0	1.0	1	0	1.0	0	855	0	0	0	unknown
8	2	2	43	41890	3769	12.528909488464704	0	1.0	2308.695956999145	0.0			0	1.0	1	0	1.0	0	856	0	0	0	unknown
8	2	2	44	60754	4812	12.529002081253564	0	1.0	1226.0156920019651	0.0			0	1.0	1	0	1.0	0	857	0	0	0	unknown
8	2	2	45	1749	6635	12.529048374621196	0	0.0	1721.2262530010776	0.0			0	0.0	0	1	2.0	0	858	0	0	0	unknown
8	2	2	46	44479	1490	12.529094671248458	1	0.0	1208.3091130043613	0.0	157.0		0	1.0	1	0	1.0	0	859	0	0	0	unknown
8	2	2	47	56597	9571	12.529140954255126	1	0.0	962.5819700013379	0.0	280.0		0	1.0	1	0	1.0	0	860	0	0	0	unknown
8	2	2	48	55277	1386	12.529187257750891	1	1.0	1570.5351580036222	0.0	83.0	162.0	1	1.0	0	1	2.0	0	861	0	0	0	unknown
8	2	2	49	5823	5896	12.529233549605124	1	0.0	1337.8880939999362	0.0	331.0		0	1.0	1	0	1.0	0	862	0	0	0	unknown
8	2	2	50	6160	3371	12.529279740178026	0	1.0	1778.2834700046803	0.0			0	1.0	1	0	1.0	0	863	0	0	0	unknown
8	2	2	51	53793	8303	12.529326035873964	0	1.0	1369.1105429970776	0.0			0	1.0	1	0	1.0	0	864	0	0	0	unknown
8	2	2	52	69730	8258	12.529372335178776	0	1.0	1467.2050770022906	0.0			0	1.0	1	0	1.0	0	865	0	0	0	unknown
8	2	2	53	50089	2854	12.529418629361317	0	1.0	939.5321979973232	0.0			0	1.0	1	0	1.0	0	866	0	0	0	unknown
8	2	2	54	35053	5745	12.529511212953366	1	0.0	1911.05102399888	0.0	229.0	344.0	0	1.0	1	0	1.0	0	867	0	0	0	unknown
8	2	2	55	11141	8175	12.529557514353655	1	0.0	1075.371416998678	0.0	449.0		0	1.0	1	0	1.0	0	868	0	0	0	unknown
8	2	2	56	26907	6851	12.529603808769023	0	1.0	1486.5765630020176	0.0			0	1.0	1	0	1.0	0	869	0	0	0	unknown
8	2	2	57	9231	108	12.529650101903824	0	1.0	1175.2223930016044	0.0			0	1.0	1	0	1.0	0	870	1	0	1	new
8	2	2	58	14595	175	12.529696392593904	1	1.0	958.7633050032307	0.0	117.0		1	1.0	0	1	2.0	0	871	1	0	2	easy
8	2	2	59	26907	6851	12.529742690268904	1	1.0	1068.9842470019355	0.0	2.0		1	1.0	0	1	2.0	0	872	0	0	0	unknown
8	2	2	60	53793	8303	12.529788977117276	1	1.0	973.15472199989	0.0	8.0		1	1.0	0	1	2.0	0	873	0	0	0	unknown
8	2	2	61	71969	3663	12.529835276771337	0	1.0	1624.613710999256	0.0			0	1.0	1	0	1.0	0	874	0	0	0	unknown
8	2	2	62	3300	1826	12.529881565482356	1	1.0	864.570072000788	0.0	105.0		1	1.0	0	1	2.0	0	875	0	0	0	unknown
8	2	3	1	61749	848	12.53142584755551	1	1.0	1162.1640439989278	0.0	72.0		1	1.0	0	1	2.0	0	876	1	0	2	easy
8	2	3	2	24543	1143	12.531472146394663	0	1.0	1531.2266459950479	0.0			0	1.0	1	0	1.0	0	877	0	0	0	unknown
8	2	3	3	13390	2020	12.531518428702839	0	1.0	1039.1359810018912	0.0			0	1.0	1	0	1.0	0	878	0	0	0	unknown
8	2	3	4	49869	3783	12.5315647397656	0	1.0	902.4874469978384	0.0			0	1.0	1	0	1.0	0	879	0	0	0	unknown
8	2	3	5	60754	4812	12.531611017766409	1	1.0	923.3431460015709	0.0	22.0		1	1.0	0	1	2.0	0	880	0	0	0	unknown
8	2	3	6	9049	106	12.53165732731577	0	0.0	1421.9912109983852	0.0			0	0.0	0	1	2.0	0	881	1	0	1	new
8	2	3	7	6585	4361	12.53170361102093	0	0.0	840.2531370011274	0.0			0	0.0	0	1	2.0	0	882	0	0	0	unknown
8	2	3	8	34532	1626	12.53174990788102	0	0.0	1771.0730100006913	1.0			0	0.0	1	1	2.0	0	883	0	0	0	unknown
8	2	3	9	14804	3996	12.531796201132236	1	0.0	1244.5616600016365	0.0	568.0		0	1.0	1	0	1.0	0	884	0	0	0	unknown
8	2	3	10	44084	4292	12.531842504977249	0	0.0	1533.9804920004099	0.0			0	0.0	0	1	2.0	0	885	0	0	0	unknown
8	2	3	11	41257	8706	12.531935093807988	1	0.0	2277.6875119961915	0.0	204.0		0	1.0	1	0	1.0	0	886	0	0	0	unknown
8	2	3	12	34581	1420	12.531981377513148	0	1.0	1823.0392539990132	0.0			0	1.0	1	0	1.0	0	887	0	0	0	unknown
8	2	3	13	14841	9893	12.532027668203227	0	1.0	1384.056780996616	0.0			0	1.0	1	0	1.0	0	888	0	0	0	unknown
8	2	3	14	56250	7841	12.53207396599464	0	1.0	1537.6983580063095	0.0			0	1.0	1	0	1.0	0	889	0	0	0	unknown
8	2	3	15	54196	1803	12.532120250281876	0	1.0	2084.3615789999603	0.0			0	1.0	1	0	1.0	0	890	0	0	0	unknown
8	2	3	16	31256	1040	12.532166544813663	1	0.0	1547.6475230025244	0.0	232.0		0	1.0	1	0	1.0	0	891	0	0	0	unknown
8	2	3	17	872	3284	12.532212848309427	1	1.0	1484.112026002549	0.0	761.0		0	0.0	0	1	2.0	0	892	0	0	0	unknown
8	2	3	18	22966	1498	12.532259142259136	0	0.0	2273.302474000957	0.0			0	0.0	0	1	2.0	0	893	0	0	0	unknown
8	2	3	19	58783	2485	12.532305428991094	0	1.0	1124.473088995728	0.0			0	1.0	1	0	1.0	0	894	0	0	0	unknown
8	2	3	20	42825	9008	12.532398015609942	1	1.0	1056.222567000077	0.0	98.0	291.0	1	1.0	0	1	2.0	0	895	0	0	0	unknown
8	2	3	21	2664	9484	12.532444315846078	1	0.0	2039.88813199976	0.0	195.0	567.0	0	1.0	1	0	1.0	0	896	0	0	0	unknown
8	2	3	22	70819	1994	12.532490612007676	1	0.0	1850.0254790051256	0.0	199.0		0	1.0	1	0	1.0	0	897	0	0	0	unknown
8	2	3	23	46000	625	12.532536902930588	0	1.0	1305.4793789997348	0.0			0	1.0	1	0	1.0	0	898	1	0	1	new
8	2	3	24	17670	8819	12.532583204912951	1	0.0	1402.9743060018518	0.0	147.0		1	0.0	1	0	1.0	0	899	0	0	0	unknown
8	2	3	25	9541	7020	12.532629495253786	1	0.0	1246.036846001516	0.0	426.0		0	1.0	1	0	1.0	0	900	0	0	0	unknown
8	2	3	26	42852	570	12.532675792928783	0	1.0	1464.710850996198	0.0			0	1.0	1	0	1.0	0	901	1	1	1	new
8	2	3	27	39643	7066	12.532722082454711	0	1.0	886.2043729968718	0.0			0	1.0	1	0	1.0	0	902	0	0	0	unknown
8	2	3	28	64516	7410	12.532768377801403	0	1.0	1472.07616900414	0.0			0	1.0	1	0	1.0	0	903	0	0	0	unknown
8	2	3	29	37309	7306	12.532814672566017	0	1.0	1274.1858779991162	0.0			0	1.0	1	0	1.0	0	904	0	0	0	unknown
8	2	3	30	65284	7785	12.53290725836996	1	1.0	1109.1933530042295	0.0	90.0		1	1.0	0	1	2.0	0	905	0	0	0	unknown
8	2	3	31	31794	4152	12.532953554182312	1	1.0	2666.6945760007366	1.0	148.0		1	1.0	1	1	2.0	0	906	0	0	0	unknown
8	2	3	32	67929	1645	12.532999848015606	1	0.0	948.787576999166	0.0	682.0		0	1.0	1	0	1.0	0	907	0	0	0	unknown
8	2	3	33	22516	276	12.533046143013053	0	1.0	1506.7344589988352	0.0			0	1.0	1	0	1.0	0	908	1	0	1	new
8	2	3	34	32699	1475	12.53309233940672	0	0.0	2913.584093999816	1.0			0	0.0	1	1	2.0	0	909	0	0	0	unknown
8	2	3	35	33235	1102	12.533138633705676	0	1.0	1110.1661339998827	0.0			0	1.0	1	0	1.0	0	910	0	0	0	unknown
8	2	3	36	60754	4812	12.533184928004628	1	1.0	1243.2698889970195	0.0	30.0	53.0	1	1.0	0	1	2.0	0	911	0	0	0	unknown
8	2	3	37	31794	4152	12.533231219742447	1	1.0	1076.6396980034187	0.0	5.0	154.0	1	1.0	0	1	2.0	0	912	0	0	0	unknown
8	2	3	38	36911	485	12.533277511363847	1	1.0	2074.2337470001075	0.0	83.0	131.0	1	1.0	0	1	2.0	0	913	1	0	3	easy
8	2	3	39	40841	534	12.533323803101666	0	0.0	1143.4793430016723	0.0			0	0.0	0	1	2.0	0	914	1	0	1	new
8	2	3	40	4304	7561	12.53337010834366	1	1.0	785.7229139990521	0.0	173.0	296.0	0	0.0	0	1	2.0	0	915	0	0	0	unknown
8	2	3	41	38475	7116	12.533416391466744	0	0.0	1190.1827309993675	0.0			0	0.0	0	1	2.0	0	916	0	0	0	unknown
8	2	3	42	59074	4035	12.533508986001834	0	1.0	1565.7551280019106	0.0			0	1.0	1	0	1.0	0	917	0	0	0	unknown
8	2	3	43	35941	6077	12.533555279718712	0	1.0	974.4859159982296	0.0			0	1.0	1	0	1.0	0	918	0	0	0	unknown
8	2	3	44	53802	4593	12.533601565985007	0	1.0	1261.0928670037536	0.0			0	1.0	1	0	1.0	0	919	0	0	0	unknown
8	2	3	45	57844	4442	12.533647865522653	0	1.0	2172.498572996119	0.0			0	1.0	1	0	1.0	0	920	0	0	0	unknown
8	2	3	46	44903	9130	12.53369416797068	1	1.0	806.7650040029549	0.0	137.0		1	1.0	0	1	2.0	0	921	0	0	0	unknown
8	2	3	47	61749	848	12.533740457030945	1	1.0	922.5472469988744	0.0	45.0	118.0	1	1.0	0	1	2.0	0	922	1	0	3	easy
8	2	3	48	55587	5221	12.53378675575368	0						0		0	0		0	923	0	0	0	unknown
8	2	3	49	63562	5313	12.533833045512436	1				133.0	163.0	1		0	0		0	924	0	0	0	unknown
8	2	3	50	565	4893	12.533879340160638	0						0		0	0		0	925	0	0	0	unknown
8	2	3	51	9028	105	12.5339256337611	0	1.0	2775.0535349987326	0.0			0	1.0	1	0	1.0	0	926	1	0	1	new
8	2	3	52	10489	1937	12.533971932833081	0	1.0	1054.8223509977106	0.0			0	1.0	1	0	1.0	0	927	0	0	0	unknown
8	2	3	53	10499	4900	12.534018215024844	1	0.0	642.0839669954148	0.0	802.0		0	1.0	1	0	1.0	0	928	0	0	0	unknown
8	2	3	54	26907	6851	12.534110802109351	1	1.0	1623.464361000515	0.0	56.0	59.0	1	1.0	0	1	2.0	0	929	0	0	0	unknown
8	2	3	55	64500	6265	12.534157105255872	0	1.0	1417.5639629975194	0.0			0	1.0	1	0	1.0	0	930	0	0	0	unknown
8	2	3	56	51774	1069	12.534203399089163	1	0.0	1187.5053429976103	0.0	276.0		0	1.0	2	0	1.0	0	931	0	0	0	unknown
8	2	3	57	13222	2195	12.534249687567351	1	1.0	902.8687400059424	0.0	164.0		1	1.0	0	1	2.0	0	932	0	0	0	unknown
8	2	3	58	65201	2484	12.534295981167816	0	0.0	1045.849971997086	0.0			0	0.0	0	1	2.0	0	933	0	0	0	unknown
8	2	3	59	6919	3699	12.534342187689615	0	0.0	1706.6052579975803	0.0			0	0.0	0	1	2.0	0	934	0	0	0	unknown
8	2	3	60	24383	3940	12.5343884708127	0	1.0	811.5035209993949	0.0			0	1.0	1	0	1.0	0	935	0	0	0	unknown
8	2	3	61	5532	7054	12.534434770350344	1	1.0	1029.374016005022	0.0	95.0		1	1.0	0	1	2.0	0	936	0	0	0	unknown
8	2	3	62	221	2492	12.534481068141758	0	1.0	2113.977077002346	0.0			0	1.0	1	0	1.0	0	937	0	0	0	unknown
8	2	3	63	36303	7629	12.534527362324296	1	1.0	1022.5997400048072	0.0	112.0		1	1.0	0	1	2.0	0	938	0	0	0	unknown
8	2	4	1	10600	5273	12.536864791647533	1	0.0	1341.467680002097	0.0	247.0		0	1.0	1	0	1.0	0	939	0	0	0	unknown
8	2	4	2	52280	4467	12.536911120638251	0	1.0	1548.6378939967835	0.0			0	1.0	1	0	1.0	0	940	0	0	0	unknown
8	2	4	3	67658	5604	12.536957374308258	1	1.0	1133.4011930011911	0.0	134.0		1	1.0	0	1	2.0	0	941	0	0	0	unknown
8	2	4	4	27383	4127	12.53700370970182	1	1.0	1114.5100180001464	0.0	120.0		1	1.0	0	1	2.0	0	942	0	0	0	unknown
8	2	4	5	51608	5242	12.537049963022582	0	1.0	1779.297271001269	1.0			0	1.0	1	1	1.0	0	943	0	0	0	unknown
8	2	4	6	53892	742	12.537096306681631	0	1.0	1325.744186004158	0.0			0	1.0	1	0	1.0	0	944	1	0	1	new
8	2	4	7	51584	5995	12.53714254987426	0	1.0	884.9034829981974	0.0			0	1.0	1	0	1.0	0	945	0	0	0	unknown
8	2	4	8	21245	6183	12.537188906804658	0	1.0	1038.339017999533	0.0			0	1.0	1	0	1.0	0	946	0	0	0	unknown
8	2	4	9	52325	3974	12.53723514766898	0	1.0	1415.5812239987426	0.0			0	1.0	1	0	1.0	0	947	0	0	0	unknown
8	2	4	10	5880	3927	12.537327724741772	0	1.0	824.9806029998581	0.0			0	1.0	1	0	1.0	0	948	0	0	0	unknown
8	2	4	11	60886	9913	12.537374039879069	1	1.0	1434.8368190039764	0.0	874.0		0	0.0	0	1	2.0	0	949	0	0	0	unknown
8	2	4	12	39643	7066	12.53742031485308	1	1.0	1227.9471430010744	0.0	47.0		1	1.0	0	1	2.0	0	950	0	0	0	unknown
8	2	4	13	61874	853	12.537466626032256	0	1.0	1606.8106710008578	1.0			0	1.0	1	1	1.0	0	951	1	1	1	new
8	2	4	14	32231	7979	12.537512903800234	0	1.0	1021.4719779978622	0.0			0	1.0	1	0	1.0	0	952	0	0	0	unknown
8	2	4	15	31028	2247	12.537559204502031	0	1.0	1090.3113429958466	0.0			0	1.0	1	0	1.0	0	953	0	0	0	unknown
8	2	4	16	20508	4061	12.537605492165312	1	0.0	816.4979400025913	0.0	855.0		0	1.0	1	0	1.0	0	954	0	0	0	unknown
8	2	4	17	55082	7697	12.537651801132595	1	0.0	780.0271700034499	0.0	392.0		0	1.0	1	0	1.0	0	955	0	0	0	unknown
8	2	4	18	13039	2287	12.53769808053039	0	1.0	843.4990800014931	0.0			0	1.0	1	0	1.0	0	956	0	0	0	unknown
8	2	4	19	23128	9977	12.537790667731313	0	1.0	1007.2980080003616	0.0			0	1.0	1	0	1.0	0	957	0	0	0	unknown
8	2	4	20	17543	6728	12.53783697914332	0	1.0	701.2925159942824	0.0			0	1.0	1	0	1.0	0	958	0	0	0	unknown
8	2	4	21	52359	5811	12.53788325341884	0	1.0	1144.3381330027476	0.0			0	1.0	1	0	1.0	0	959	0	0	0	unknown
8	2	4	22	69043	3586	12.537929560057817	0	1.0	778.2079109965707	0.0			0	1.0	1	0	1.0	0	960	0	0	0	unknown
8	2	4	23	21750	2584	12.537975843995808	0	1.0	907.7606540013219	0.0			0	1.0	1	0	1.0	0	961	0	0	0	unknown
8	2	4	24	58918	5905	12.538022143184207	0	1.0	1462.126046004414	0.0			0	1.0	1	0	1.0	0	962	0	0	0	unknown
8	2	4	25	48088	6619	12.538068433175795	0	1.0	1520.978284002922	0.0			0	1.0	1	0	1.0	0	963	0	0	0	unknown
