SUBJECT	SESSION	RUN	TRIAL	73KID	10KID	TIME	ISOLD	ISCORRECT	RT	CHANGEMIND	MEMORYRECENT	MEMORYFIRST	ISOLDCURRENT	ISCORRECTCURRENT	TOTAL1	TOTAL2	BUTTON	MISSINGDATA	trial_full	is_shared1000	is_special100	shared1000_repNum	presentation_type
6	1	1	1	46003	626	0.6895208577625453	0	1.0	665.1053900022816	0.0			0	1.0	1.0	0.0	1.0	0	1	1	0	1	new
6	1	1	2	21397	5013	0.689567144610919	0	1.0	543.2197049995011	0.0			0	1.0	1.0	0.0	1.0	0	2	0	0	0	unknown
6	1	1	3	18925	4850	0.6896134514827281	0	1.0	658.3376829985355	0.0			0	1.0	1.0	0.0	1.0	0	3	0	0	0	unknown
6	1	1	4	27158	8823	0.6896597413579002	0	1.0	905.8992579994083	0.0			0	1.0	1.0	0.0	1.0	0	4	0	0	0	unknown
6	1	1	5	16125	9538	0.6897060392657294	0	1.0	680.3317589983635	0.0			0	1.0	1.0	0.0	1.0	0	5	0	0	0	unknown
6	1	1	6	25660	6061	0.6897523395018652	0	1.0	686.7973910011642	0.0			0	1.0	1.0	0.0	1.0	0	6	0	0	0	unknown
6	1	1	7	3644	4421	0.6897986211115494	0	1.0	556.8672650006192	0.0			0	1.0	1.0	0.0	1.0	0	7	0	0	0	unknown
6	1	1	8	6454	3858	0.6898449336877092	0	1.0	585.3817749994049	0.0			0	1.0	1.0	0.0	1.0	0	8	0	0	0	unknown
6	1	1	9	18245	8124	0.6898912159958854	0	1.0	587.857079000969	0.0			0	1.0	1.0	0.0	1.0	0	9	0	0	0	unknown
6	1	1	10	59119	4843	0.6899375305511057	0	1.0	568.7136289998307	0.0			0	1.0	1.0	0.0	1.0	0	10	0	0	0	unknown
6	1	1	11	34518	7941	0.6899838037788867	0	1.0	556.2659160023031	0.0			0	1.0	1.0	0.0	1.0	0	11	0	0	0	unknown
6	1	1	12	20971	4523	0.6900301262503489	0	1.0	545.6038090014772	0.0			0	1.0	1.0	0.0	1.0	0	12	0	0	0	unknown
6	1	1	13	70206	1070	0.6901227239286527	0	1.0	534.0455570003542	0.0			0	1.0	1.0	0.0	1.0	0	13	0	0	0	unknown
6	1	1	14	65901	9588	0.690168980276212	0	1.0	519.030367002415	0.0			0	1.0	1.0	0.0	1.0	0	14	0	0	0	unknown
6	1	1	15	1603	4623	0.6902153191622346	0	1.0	517.0454159997462	0.0			0	1.0	1.0	0.0	1.0	0	15	0	0	0	unknown
6	1	1	16	15133	3185	0.6902615707367658	0	1.0	578.471561002516	0.0			0	1.0	1.0	0.0	1.0	0	16	0	0	0	unknown
6	1	1	17	39352	4586	0.6903079171897843	0	1.0	487.8919339971617	0.0			0	1.0	1.0	0.0	1.0	0	17	0	0	0	unknown
6	1	1	18	39930	1009	0.6903541572391986	0	1.0	586.9741569986218	0.0			0	1.0	1.0	0.0	1.0	0	18	0	0	0	unknown
6	1	1	19	17678	8634	0.6904005056712776	0	1.0	627.8168230019219	0.0			0	1.0	1.0	0.0	1.0	0	19	0	0	0	unknown
6	1	1	20	26937	9648	0.6904467480489984	0	1.0	601.4004210010171	0.0			0	1.0	1.0	0.0	1.0	0	20	0	0	0	unknown
6	1	1	21	50548	9425	0.6904931031167507	0	1.0	618.1529809982749	0.0			0	1.0	1.0	0.0	1.0	0	21	0	0	0	unknown
6	1	1	22	70332	1344	0.6905393342021852	0	1.0	574.0371749998303	0.0			0	1.0	1.0	0.0	1.0	0	22	0	0	0	unknown
6	1	1	23	30391	7441	0.6906319223344326	0	1.0	689.1965860013443	0.0			0	1.0	1.0	0.0	1.0	0	23	0	0	0	unknown
6	1	1	24	11429	3902	0.6906782881123945	0	1.0	538.3884410002793	0.0			0	1.0	1.0	0.0	1.0	0	24	0	0	0	unknown
6	1	1	25	71376	8795	0.6907245069742202	0	1.0	702.6010620029409	0.0			0	1.0	1.0	0.0	1.0	0	25	0	0	0	unknown
6	1	1	26	22718	1840	0.6907708157086744	0	1.0	681.9373010002892	0.0			0	1.0	1.0	0.0	1.0	0	26	0	0	0	unknown
6	1	1	27	60314	1356	0.690817093825899	0	1.0	603.8015670019377	0.0			0	1.0	1.0	0.0	1.0	0	27	0	0	0	unknown
6	1	1	28	17298	5506	0.6908633946441113	0	1.0	746.10010899778	0.0			0	1.0	1.0	0.0	1.0	0	28	0	0	0	unknown
6	1	1	29	48618	666	0.6909096809104084	0	1.0	739.9191730000892	0.0			0	1.0	1.0	0.0	1.0	0	29	1	0	1	new
6	1	1	30	13354	8240	0.6909559901105239	0	1.0	682.3880119991372	0.0			0	1.0	2.0	0.0	1.0	0	30	0	0	0	unknown
6	1	1	31	35670	7232	0.691002273466438	0	1.0	731.6878989986435	0.0			0	1.0	1.0	0.0	1.0	0	31	0	0	0	unknown
6	1	1	32	4713	5691	0.6910485782427713	0	1.0	714.6821829992405	0.0			0	1.0	1.0	0.0	1.0	0	32	0	0	0	unknown
6	1	1	33	31988	6661	0.6910948631120845	0	1.0	607.4941770020814	0.0			0	1.0	1.0	0.0	1.0	0	33	0	0	0	unknown
6	1	1	34	27318	2400	0.6911411620676517	0	1.0	989.0281560001312	0.0			0	1.0	2.0	0.0	1.0	0	34	0	0	0	unknown
6	1	1	35	68075	2252	0.691233646357432	0	1.0	879.3212710006627	0.0			0	1.0	1.0	0.0	1.0	0	35	0	0	0	unknown
6	1	1	36	44981	612	0.6912799427518621	0	1.0	782.4148299987427	0.0			0	1.0	1.0	0.0	1.0	0	36	1	0	1	new
6	1	1	37	41781	1609	0.6913262298330664	0	1.0	1074.9000409996368	0.0			0	1.0	1.0	0.0	1.0	0	37	0	0	0	unknown
6	1	1	38	16840	3579	0.6913725214544683	0	1.0	789.7661999995762	0.0			0	1.0	1.0	0.0	1.0	0	38	0	0	0	unknown
6	1	1	39	25508	1703	0.6914188233204185	0	1.0	1012.023955998302	0.0			0	1.0	1.0	0.0	1.0	0	39	0	0	0	unknown
6	1	1	40	30233	9976	0.6914651188999414	0	1.0	932.5583810023089	0.0			0	1.0	1.0	0.0	1.0	0	40	0	0	0	unknown
6	1	1	41	68209	5770	0.6915114150615409	0	1.0	749.8439349983527	0.0			0	1.0	1.0	0.0	1.0	0	41	0	0	0	unknown
6	1	1	42	40834	8748	0.6915577040053904	0	1.0	758.3512370001699	0.0			0	1.0	1.0	0.0	1.0	0	42	0	0	0	unknown
6	1	1	43	6855	9202	0.6916039952775463	0	1.0	943.7353729990718	0.0			0	1.0	1.0	0.0	1.0	0	43	0	0	0	unknown
6	1	1	44	57007	3123	0.6916502946987748	0	1.0	823.3154690024093	0.0			0	1.0	1.0	0.0	1.0	0	44	0	0	0	unknown
6	1	1	45	32626	436	0.6916965892305597	0	1.0	1102.9338860025744	0.0			0	1.0	1.0	0.0	1.0	0	45	1	0	1	new
6	1	1	46	39352	4586	0.69178917480167	1	1.0	746.6206420031085	0.0	28.0		1	1.0	0.0	1.0	2.0	0	46	0	0	0	unknown
6	1	1	47	69606	1499	0.6918354710796847	0	1.0	745.0020200012659	0.0			0	1.0	1.0	0.0	1.0	0	47	0	0	0	unknown
6	1	1	48	50463	2872	0.6918817573459818	0	1.0	624.5421690000512	0.0			0	1.0	1.0	0.0	1.0	0	48	0	0	0	unknown
6	1	1	49	37535	9173	0.6919280627043917	0	1.0	710.0399599985394	0.0			0	1.0	1.0	0.0	1.0	0	49	0	0	0	unknown
6	1	1	50	52484	2665	0.6919743518810719	0	1.0	737.6231439993716	0.0			0	1.0	1.0	0.0	1.0	0	50	0	0	0	unknown
6	1	1	51	65382	1045	0.6920206397771835	0	1.0	645.4123690018605	0.0			0	1.0	1.0	0.0	1.0	0	51	0	0	0	unknown
6	1	1	52	52358	1974	0.6920669408282265	0	1.0	783.8836980008637	0.0			0	1.0	1.0	0.0	1.0	0	52	0	0	0	unknown
6	1	1	53	44255	2268	0.6921132360585033	0	1.0	668.2416799994826	0.0			0	1.0	1.0	0.0	1.0	0	53	0	0	0	unknown
6	1	1	54	50606	7771	0.6921595222083851	0	1.0	687.6182240011985	0.0			0	1.0	2.0	0.0	1.0	0	54	0	0	0	unknown
6	1	1	55	61546	6336	0.6922521175583825	0	1.0	680.6880380026996	0.0			0	1.0	1.0	0.0	1.0	0	55	0	0	0	unknown
6	1	1	56	53053	727	0.6922984112752602	0	1.0	602.3287820025871	0.0			0	1.0	1.0	0.0	1.0	0	56	1	1	1	new
6	1	1	57	4931	40	0.6923447012668476	0	1.0	770.961238999007	0.0			0	1.0	1.0	0.0	1.0	0	57	1	0	1	new
6	1	1	58	31910	6000	0.6923910038312897	0	1.0	702.9854499996873	0.0			0	1.0	1.0	0.0	1.0	0	58	0	0	0	unknown
6	1	1	59	26735	7046	0.6924372940557078	0	1.0	827.8484089969425	0.0			0	1.0	1.0	0.0	1.0	0	59	0	0	0	unknown
6	1	1	60	67268	1607	0.6924835889367386	0	1.0	855.9970090027491	0.0			0	1.0	1.0	0.0	1.0	0	60	0	0	0	unknown
6	1	1	61	28476	2132	0.6925298811402171	0	1.0	802.2621290001553	0.0			0	1.0	1.0	0.0	1.0	0	61	0	0	0	unknown
6	1	1	62	16500	5352	0.6925760729936882	0	1.0	684.8462449997896	0.0			0	1.0	1.0	0.0	1.0	0	62	0	0	0	unknown
6	1	1	63	34956	2514	0.6926223672926425	0	1.0	760.6054109965044	0.0			0	1.0	1.0	0.0	1.0	0	63	0	0	0	unknown
6	1	2	1	63007	5730	0.6941337777534499	0	1.0	656.6024929998093	0.0			0	1.0	1.0	0.0	1.0	0	64	0	0	0	unknown
6	1	2	2	45905	4135	0.6941800832282751	0	1.0	642.9924920012127	0.0			0	1.0	1.0	0.0	1.0	0	65	0	0	0	unknown
6	1	2	3	66500	5169	0.6942263675155118	0	1.0	588.4159240013105	0.0			0	1.0	1.0	0.0	1.0	0	66	0	0	0	unknown
6	1	2	4	3791	5821	0.6942726682173088	0	1.0	748.2016100002512	0.0			0	1.0	1.0	0.0	1.0	0	67	0	0	0	unknown
6	1	2	5	70729	8842	0.6943189532030373	0	1.0	748.1217419990571	0.0			0	1.0	1.0	0.0	1.0	0	68	0	0	0	unknown
6	1	2	6	45905	4135	0.6943652485497295	1	1.0	710.5823640013114	0.0	3.0		1	1.0	0.0	1.0	2.0	0	69	0	0	0	unknown
6	1	2	7	23264	4990	0.6944115327205508	0	1.0	829.4535749992064	0.0			0	1.0	1.0	0.0	1.0	0	70	0	0	0	unknown
6	1	2	8	56532	9955	0.6944578443653882	0	1.0	659.7767079983896	0.0			0	1.0	1.0	0.0	1.0	0	71	0	0	0	unknown
6	1	2	9	68299	7331	0.6945041292347013	0	1.0	691.7978889978258	0.0			0	1.0	1.0	0.0	1.0	0	72	0	0	0	unknown
6	1	2	10	44511	3470	0.6945504258619621	0	1.0	745.9642850008095	0.0			0	1.0	1.0	0.0	1.0	0	73	0	0	0	unknown
6	1	2	11	63294	9913	0.694596717483364	0	1.0	653.810836000048	0.0			0	1.0	1.0	0.0	1.0	0	74	0	0	0	unknown
6	1	2	12	52910	3207	0.6946893045678734	0	1.0	665.2916769999138	0.0			0	1.0	1.0	0.0	1.0	0	75	0	0	0	unknown
6	1	2	13	7821	5799	0.6947356106247752	0	1.0	1001.5232940022541	0.0			0	1.0	1.0	0.0	1.0	0	76	0	0	0	unknown
6	1	2	14	52792	4068	0.6947818862972781	0	1.0	851.530323998304	0.0			0	1.0	1.0	0.0	1.0	0	77	0	0	0	unknown
6	1	2	15	20405	2204	0.6948281929362565	0	1.0	771.8545280004035	0.0			0	1.0	1.0	0.0	1.0	0	78	0	0	0	unknown
6	1	2	16	31792	7081	0.6948744822293519	0	1.0	754.8053020000226	0.0			0	1.0	1.0	0.0	1.0	0	79	0	0	0	unknown
6	1	2	17	12575	3632	0.6949207782745361	0	1.0	836.1428489988612	0.0			0	1.0	1.0	0.0	1.0	0	80	0	0	0	unknown
6	1	2	18	66416	3444	0.6949670611647889	0	1.0	918.0034380005965	0.0			0	1.0	1.0	0.0	1.0	0	81	0	0	0	unknown
6	1	2	19	71039	2840	0.6950132675701752	0	1.0	860.3656500017677	0.0			0	1.0	1.0	0.0	1.0	0	82	0	0	0	unknown
6	1	2	20	43269	1538	0.695059553720057	0	1.0	879.991826997866	0.0			0	1.0	1.0	0.0	1.0	0	83	0	0	0	unknown
6	1	2	21	29860	8951	0.6951521461596712	0	1.0	692.4169880003319	0.0			0	1.0	1.0	0.0	1.0	0	84	0	0	0	unknown
6	1	2	22	26307	8009	0.6951984354527667	0	1.0	891.3095310017524	0.0			0	1.0	1.0	0.0	1.0	0	85	0	0	0	unknown
6	1	2	23	68492	5772	0.6952447419753298	0	1.0	801.2998320009501	0.0			0	1.0	1.0	0.0	1.0	0	86	0	0	0	unknown
6	1	2	24	64072	5200	0.6952910310355946	0	1.0	902.1095360003528	0.0			0	1.0	1.0	0.0	1.0	0	87	0	0	0	unknown
6	1	2	25	13521	7984	0.6953373180003836	0	1.0	1003.03925100161	0.0			0	1.0	1.0	0.0	1.0	0	88	0	0	0	unknown
6	1	2	26	22892	9865	0.6953836207976564	0	1.0	1187.2316270018928	0.0			0	1.0	1.0	0.0	1.0	0	89	0	0	0	unknown
6	1	2	27	71986	7367	0.6954299053177238	0	1.0	903.14440200018	0.0			0	1.0	1.0	0.0	1.0	0	90	0	0	0	unknown
6	1	2	28	32626	436	0.6954762089299038	1	1.0	981.9127490009123	0.0	45.0		1	1.0	0.0	1.0	2.0	0	91	1	0	2	easy
6	1	2	29	37993	3014	0.6955225029960274	0	1.0	812.999165002111	0.0			0	1.0	1.0	0.0	1.0	0	92	0	0	0	unknown
6	1	2	30	13624	3569	0.6955687971785663	0	1.0	1245.9542079996027	0.0			0	1.0	1.0	0.0	1.0	0	93	0	0	0	unknown
6	1	2	31	49550	6871	0.6956613815855234	0	1.0	827.2513760020956	0.0			0	1.0	1.0	0.0	1.0	0	94	0	0	0	unknown
6	1	2	32	6261	4263	0.695707679609768	0	1.0	809.2999519976729	0.0			0	1.0	1.0	0.0	1.0	0	95	0	0	0	unknown
6	1	2	33	32030	3694	0.6957539720460773	0	1.0	691.0816679992422	0.0			0	1.0	1.0	0.0	1.0	0	96	0	0	0	unknown
6	1	2	34	8895	5322	0.6958002654137089	0	1.0	787.9747990009491	0.0			0	1.0	1.0	0.0	1.0	0	97	0	0	0	unknown
6	1	2	35	51747	4061	0.6958465619245544	0	1.0	846.485759000643	0.0			0	1.0	1.0	0.0	1.0	0	98	0	0	0	unknown
6	1	2	36	63084	7985	0.6958928479580208	0	1.0	837.6567420018547	0.0			0	1.0	1.0	0.0	1.0	0	99	0	0	0	unknown
6	1	2	37	1102	6041	0.6959391452837735	0	1.0	970.7902589980221	0.0			0	1.0	1.0	0.0	1.0	0	100	0	0	0	unknown
6	1	2	38	15951	6142	0.6959854359738528	0	1.0	691.2498689998756	0.0			0	1.0	1.0	0.0	1.0	0	101	0	0	0	unknown
6	1	2	39	70767	6843	0.6960317379562184	0	1.0	875.3455599980952	0.0			0	1.0	1.0	0.0	1.0	0	102	0	0	0	unknown
6	1	2	40	37015	7442	0.6960780250374227	0	1.0	710.9772900003009	0.0			0	1.0	1.0	0.0	1.0	0	103	0	0	0	unknown
6	1	2	41	66496	1108	0.6961706244619563	0	1.0	622.0655879988044	0.0			0	1.0	1.0	0.0	1.0	0	104	0	0	0	unknown
6	1	2	42	5917	9936	0.6962169072357937	0	1.0	1226.8433760000335	0.0			0	1.0	1.0	0.0	1.0	0	105	0	0	0	unknown
6	1	2	43	63620	2757	0.6962631121277809	0	1.0	617.7308389997052	0.0			0	1.0	1.0	0.0	1.0	0	106	0	0	0	unknown
6	1	2	44	60757	9658	0.6963094059610739	0	1.0	826.6048090008553	0.0			0	1.0	1.0	0.0	1.0	0	107	0	0	0	unknown
6	1	2	45	66500	5169	0.6963557008421049	1	1.0	805.705447000946	0.0	41.0		1	1.0	0.0	1.0	2.0	0	108	0	0	0	unknown
6	1	2	46	51023	3376	0.6964019945589826	0	1.0	683.6148369984585	0.0			0	1.0	1.0	0.0	1.0	0	109	0	0	0	unknown
6	1	2	47	45236	7287	0.696448280243203	0	1.0	808.0545400007395	0.0			0	1.0	1.0	0.0	1.0	0	110	0	0	0	unknown
6	1	2	48	17323	5363	0.6964945826912298	0	1.0	772.1844980005698	0.0			0	1.0	1.0	0.0	1.0	0	111	0	0	0	unknown
6	1	2	49	48566	5834	0.6965408767573535	0	1.0	1139.911500002199	0.0			0	1.0	1.0	0.0	1.0	0	112	0	0	0	unknown
6	1	2	50	37814	6448	0.6965871632564812	0	1.0	908.1240849991443	0.0			0	1.0	1.0	0.0	1.0	0	113	0	0	0	unknown
6	1	2	51	47216	4186	0.6966334590688347	0	1.0	803.2842770007846	0.0			0	1.0	1.0	0.0	1.0	0	114	0	0	0	unknown
6	1	2	52	15698	9715	0.6966797561617568	0	1.0	807.0110240005307	0.0			0	1.0	1.0	0.0	1.0	0	115	0	0	0	unknown
6	1	2	53	54468	1430	0.696772348252125	0	1.0	755.9021249981016	0.0			0	1.0	1.0	0.0	1.0	0	116	0	0	0	unknown
6	1	2	54	40923	9621	0.6968186420854181	0	1.0	749.352695998823	0.0			0	1.0	1.0	0.0	1.0	0	117	0	0	0	unknown
6	1	2	55	47210	7112	0.696864936267957	0	1.0	809.0992519973952	0.0			0	1.0	1.0	0.0	1.0	0	118	0	0	0	unknown
6	1	2	56	29573	9845	0.6969112221850082	0	1.0	870.8301320002646	0.0			0	1.0	1.0	0.0	1.0	0	119	0	0	0	unknown
6	1	2	57	14685	7473	0.6969575270777568	0	1.0	808.5220899993145	0.0			0	1.0	1.0	0.0	1.0	0	120	0	0	0	unknown
6	1	2	58	6432	60	0.6970038146246224	0	1.0	1389.607364002586	0.0			0	1.0	1.0	0.0	1.0	0	121	1	0	1	new
6	1	2	59	63620	2757	0.697050112998113	1	1.0	722.5986379999085	0.0	15.0		1	1.0	0.0	1.0	2.0	0	122	0	0	0	unknown
6	1	2	60	28325	2704	0.6970964085776358	0	1.0	634.3781739997212	0.0			0	1.0	1.0	0.0	1.0	0	123	0	0	0	unknown
6	1	2	61	17678	8634	0.697142705321312	1	1.0	979.3548609995923	0.0	104.0		1	1.0	0.0	1.0	2.0	0	124	0	0	0	unknown
6	1	2	62	49055	4900	0.6971889904234558	0	1.0	676.0761639998236	0.0			0	1.0	1.0	0.0	1.0	0	125	0	0	0	unknown
6	1	3	1	31549	7336	0.6986974123865365	0	1.0	666.9585689996893	0.0			0	1.0	1.0	0.0	1.0	0	126	0	0	0	unknown
6	1	3	2	70336	970	0.6987437377683818	0	1.0	698.7693549999676	0.0			0	1.0	1.0	0.0	1.0	0	127	1	0	1	new
6	1	3	3	23823	4229	0.6987899970263242	0	1.0	680.9584109978459	0.0			0	1.0	1.0	0.0	1.0	0	128	0	0	0	unknown
6	1	3	4	45962	3770	0.6988362977281212	0	1.0	734.406081999623	0.0			0	1.0	1.0	0.0	1.0	0	129	0	0	0	unknown
6	1	3	5	24550	3284	0.698882587486878	0	1.0	648.4909589999006	0.0			0	1.0	1.0	0.0	1.0	0	130	0	0	0	unknown
6	1	3	6	54677	6316	0.6989288793411105	0	1.0	680.9192129985604	0.0			0	1.0	1.0	0.0	1.0	0	131	0	0	0	unknown
6	1	3	7	54599	1266	0.6989751789951696	0	1.0	802.4605900027381	0.0			0	1.0	1.0	0.0	1.0	0	132	0	0	0	unknown
6	1	3	8	36577	479	0.6990214617690071	0	1.0	988.1560489993715	0.0			0	1.0	1.0	0.0	1.0	0	133	1	0	1	new
6	1	3	9	21215	6277	0.699067766428925	0	1.0	602.1459740004502	0.0			0	1.0	1.0	0.0	1.0	0	134	0	0	0	unknown
6	1	3	10	2967	9754	0.6991141163744032	0	1.0	830.7965929998317	0.0			0	1.0	1.0	0.0	1.0	0	135	0	0	0	unknown
6	1	3	11	20670	7300	0.6992067106766626	0	1.0	780.2332940009363	0.0			0	1.0	1.0	0.0	1.0	0	136	0	0	0	unknown
6	1	3	12	5483	1104	0.699252939899452	0	1.0	718.5778570019465	0.0			0	1.0	1.0	0.0	1.0	0	137	0	0	0	unknown
6	1	3	13	57655	7313	0.6992993052117527	0	1.0	970.4948400030846	0.0			0	1.0	1.0	0.0	1.0	0	138	0	0	0	unknown
6	1	3	14	70007	3250	0.6993455262854695	0	1.0	1062.5670590015943	0.0			0	1.0	1.0	0.0	1.0	0	139	0	0	0	unknown
6	1	3	15	25614	6726	0.6993919032393023	0	1.0	1051.7783319992304	0.0			0	1.0	1.0	0.0	1.0	0	140	0	0	0	unknown
6	1	3	16	20594	8054	0.6994381175609306	0	1.0	921.024634000787	0.0			0	1.0	1.0	0.0	1.0	0	141	0	0	0	unknown
6	1	3	17	43933	7613	0.699484497657977	0	1.0	818.0152130007627	0.0			0	1.0	1.0	0.0	1.0	0	142	0	0	0	unknown
6	1	3	18	44060	6236	0.6995306985918432	0	1.0	849.9124700028915	0.0			0	1.0	1.0	0.0	1.0	0	143	0	0	0	unknown
6	1	3	19	15988	2259	0.6995770838111639	0	1.0	868.5765859991078	0.0			0	1.0	1.0	0.0	1.0	0	144	0	0	0	unknown
6	1	3	20	6211	3968	0.699623289052397	0	1.0	818.1515610012866	0.0			0	1.0	1.0	0.0	1.0	0	145	0	0	0	unknown
6	1	3	21	70752	2980	0.6996696814894676	0	1.0	821.7683530019711	0.0			0	1.0	1.0	0.0	1.0	0	146	0	0	0	unknown
6	1	3	22	17098	9718	0.6997158838203176	0	1.0	1120.8636410010513	0.0			0	1.0	1.0	0.0	1.0	0	147	0	0	0	unknown
6	1	3	23	19873	1550	0.6997622773051261	0	1.0	713.8411800005997	0.0			0	1.0	1.0	0.0	1.0	0	148	0	0	0	unknown
6	1	3	24	70752	2980	0.6998084711376577	1	1.0	874.5524709993333	0.0	2.0		1	1.0	0.0	1.0	2.0	0	149	0	0	0	unknown
6	1	3	25	72764	6274	0.6999010621802881	0	1.0	1273.695414998656	0.0			0	1.0	1.0	0.0	1.0	0	150	0	0	0	unknown
6	1	3	26	71351	6666	0.6999472598545253	0	1.0	878.8836290004837	0.0			0	1.0	1.0	0.0	1.0	0	151	0	0	0	unknown
6	1	3	27	31174	3580	0.6999935515923424	0	1.0	734.7666530004062	0.0			0	1.0	1.0	0.0	1.0	0	152	0	0	0	unknown
6	1	3	28	57047	791	0.7000398657983168	0	1.0	1101.904374998412	0.0			0	1.0	1.0	0.0	1.0	0	153	1	0	1	new
6	1	3	29	50606	7771	0.7000861351843923	1	1.0	1042.0948610008052	0.0	99.0		1	1.0	0.0	1.0	2.0	0	154	0	0	0	unknown
6	1	3	30	63084	7985	0.7001324396114796	1	1.0	881.1865339994256	0.0	55.0		1	1.0	0.0	1.0	2.0	0	155	0	0	0	unknown
6	1	3	31	26456	5651	0.7001787249464541	0	1.0	945.217884000158	0.0			0	1.0	1.0	0.0	1.0	0	156	0	0	0	unknown
6	1	3	32	72136	4786	0.7002250180812551	0	1.0	903.7636280008882	0.0			0	1.0	1.0	0.0	1.0	0	157	0	0	0	unknown
6	1	3	33	52453	5910	0.7002713083056733	0	1.0	1016.6000179997354	0.0			0	1.0	1.0	0.0	1.0	0	158	0	0	0	unknown
6	1	3	34	25521	6588	0.7003176156431437	0	1.0	635.6144599994877	0.0			0	1.0	1.0	0.0	1.0	0	159	0	0	0	unknown
6	1	3	35	29463	5925	0.7003639051690697	0	1.0	689.0169289981714	0.0			0	1.0	1.0	0.0	1.0	0	160	0	0	0	unknown
6	1	3	36	32483	5699	0.7004564938833937	0	1.0	722.9027350003889	0.0			0	1.0	1.0	0.0	1.0	0	161	0	0	0	unknown
6	1	3	37	27698	3719	0.700502777704969	0	1.0	1038.419201002398	0.0			0	1.0	1.0	0.0	1.0	0	162	0	0	0	unknown
6	1	3	38	2010	5440	0.7005490778246894	0	1.0	1030.9811340011947	0.0			0	1.0	1.0	0.0	1.0	0	163	0	0	0	unknown
6	1	3	39	5426	9470	0.7005953745683655	0	1.0	684.23286700272	0.0			0	1.0	1.0	0.0	1.0	0	164	0	0	0	unknown
6	1	3	40	36139	1330	0.7006416725926101	0	1.0	746.2969910011453	0.0			0	1.0	1.0	0.0	1.0	0	165	0	0	0	unknown
6	1	3	41	27006	8935	0.7006879560649394	0	1.0	670.4589309993024	0.0			0	1.0	1.0	0.0	1.0	0	166	0	0	0	unknown
6	1	3	42	7660	80	0.7007342536235228	0	1.0	576.7418659997929	0.0			0	1.0	1.0	0.0	1.0	0	167	1	0	1	new
6	1	3	43	49053	2159	0.7007805490866303	0	1.0	622.8308819991071	0.0			0	1.0	1.0	0.0	1.0	0	168	0	0	0	unknown
6	1	3	44	19176	1866	0.7008268430363386	0	1.0	634.3290909971984	0.0			0	1.0	1.0	0.0	1.0	0	169	0	0	0	unknown
6	1	3	45	27753	5965	0.7009194351267068	0	1.0	683.8002520016744	0.0			0	1.0	1.0	0.0	1.0	0	170	0	0	0	unknown
6	1	3	46	54562	7512	0.700965727912262	0	1.0	1191.157244000351	0.0			0	1.0	1.0	0.0	1.0	0	171	0	0	0	unknown
6	1	3	47	52746	4025	0.7010120234917849	0	1.0	717.3272239997459	0.0			0	1.0	1.0	0.0	1.0	0	172	0	0	0	unknown
6	1	3	48	52746	4025	0.7010583167430013	1	1.0	802.1566639981756	0.0	0.0		1	1.0	0.0	1.0	2.0	0	173	0	0	0	unknown
6	1	3	49	30374	403	0.7011046106927096	0	1.0	733.2492749992525	0.0			0	1.0	1.0	0.0	1.0	0	174	1	0	1	new
6	1	3	50	224	1665	0.7011509048752486	0	1.0	680.8404349976627	0.0			0	1.0	1.0	0.0	1.0	0	175	0	0	0	unknown
6	1	3	51	57497	9667	0.701197191257961	0	1.0	687.4595810004394	0.0			0	1.0	2.0	0.0	1.0	0	176	0	0	0	unknown
6	1	3	52	25960	340	0.7012434927746652	0	1.0	883.2948300005227	0.0			0	1.0	1.0	0.0	1.0	0	177	1	0	1	new
6	1	3	53	835	6692	0.7012896911473944	0	1.0	831.8277760008641	0.0			0	1.0	1.0	0.0	1.0	0	178	0	0	0	unknown
6	1	3	54	8491	3824	0.7013822775334119	0	1.0	911.1549879999073	0.0			0	1.0	1.0	0.0	1.0	0	179	0	0	0	unknown
6	1	3	55	9924	1160	0.7014285740442574	0	1.0	928.0396089998248	0.0			0	1.0	1.0	0.0	1.0	0	180	0	0	0	unknown
6	1	3	56	26735	7046	0.7014748676447197	1	1.0	743.5960590009927	0.0	121.0		1	1.0	0.0	1.0	2.0	0	181	0	0	0	unknown
6	1	3	57	1777	7852	0.7015211572870612	0	1.0	1185.9324809993268	0.0			0	1.0	1.0	0.0	1.0	0	182	0	0	0	unknown
6	1	3	58	42367	5291	0.7015674563590437	0	1.0	746.5935049986001	0.0			0	1.0	1.0	0.0	1.0	0	183	0	0	0	unknown
6	1	3	59	54401	3595	0.7016137451864778	0	1.0	778.0437799992796	0.0			0	1.0	1.0	0.0	1.0	0	184	0	0	0	unknown
6	1	3	60	60056	2325	0.7016600399510934	0	1.0	656.9286490012017	0.0			0	1.0	1.0	0.0	1.0	0	185	0	0	0	unknown
6	1	3	61	66140	4285	0.7017063394887372	0	1.0	812.751471003139	0.0			0	1.0	1.0	0.0	1.0	0	186	0	0	0	unknown
6	1	3	62	40189	8561	0.7017526329727843	0	1.0	753.4621920021891	0.0			0	1.0	1.0	0.0	1.0	0	187	0	0	0	unknown
6	1	3	63	37993	3014	0.7017989275045692	1	1.0	927.8481780020227	0.0	95.0		1	1.0	0.0	1.0	2.0	0	188	0	0	0	unknown
6	1	4	1	30374	403	0.7034163123462349	1	1.0	1017.6960839999082	0.0	14.0		1	1.0	0.0	1.0	2.0	0	189	1	0	2	easy
6	1	4	2	44981	612	0.7034626136301085	1	0.0	1485.8259570028167	0.0	153.0		1	0.0	1.0	0.0	1.0	0	190	1	0	2	easy
6	1	4	3	45940	4687	0.7035089056007564	0	1.0	774.2005719992447	0.0			0	1.0	1.0	0.0	1.0	0	191	0	0	0	unknown
6	1	4	4	50548	9425	0.7035552113084123	1	0.0	782.4493640000583	0.0	170.0		1	0.0	1.0	0.0	1.0	0	192	0	0	0	unknown
6	1	4	5	2155	7750	0.7036014857003465	0	1.0	1203.8006859984307	0.0			0	1.0	1.0	0.0	1.0	0	193	0	0	0	unknown
6	1	4	6	17127	3194	0.7036478044465184	0	1.0	1008.8039980000758	0.0			0	1.0	1.0	0.0	1.0	0	194	0	0	0	unknown
6	1	4	7	23869	2628	0.7036940812831745	0	1.0	851.8398790001811	0.0			0	1.0	1.0	0.0	1.0	0	195	0	0	0	unknown
6	1	4	8	71151	9722	0.7037403787253425	0	1.0	888.8666790007846	0.0			0	1.0	1.0	0.0	1.0	0	196	0	0	0	unknown
6	1	4	9	40189	8561	0.7037866699974983	1	1.0	936.144431001594	0.0	9.0		1	1.0	0.0	1.0	2.0	0	197	0	0	0	unknown
6	1	4	10	7759	2670	0.7038329627830535	0	1.0	784.1149019986915	0.0			0	1.0	1.0	0.0	1.0	0	198	0	0	0	unknown
6	1	4	11	1312	5109	0.703925545909442	0	1.0	941.9839649999631	0.0			0	1.0	1.0	0.0	1.0	0	199	0	0	0	unknown
6	1	4	12	65294	3457	0.7039718409068882	0	1.0	770.612202999473	0.0			0	1.0	1.0	0.0	1.0	0	200	0	0	0	unknown
6	1	4	13	17860	9972	0.7040181424235925	0	1.0	720.4716819978785	0.0			0	1.0	1.0	0.0	1.0	0	201	0	0	0	unknown
6	1	4	14	65415	899	0.7040644343942403	0	1.0	937.6652219980314	0.0			0	1.0	1.0	0.0	1.0	0	202	1	0	1	new
6	1	4	15	58256	5741	0.7041107875993475	0	1.0	1118.687417001638	0.0			0	1.0	1.0	0.0	1.0	0	203	0	0	0	unknown
6	1	4	16	23920	3831	0.7041570146102458	0	1.0	903.9970129997528	0.0			0	1.0	1.0	0.0	1.0	0	204	0	0	0	unknown
6	1	4	17	23586	3799	0.7042033752659335	0	1.0	866.8169529992156	0.0			0	1.0	1.0	0.0	1.0	0	205	0	0	0	unknown
6	1	4	18	37827	2517	0.7042496112408116	0	1.0	882.883103997301	0.0			0	1.0	1.0	0.0	1.0	0	206	0	0	0	unknown
6	1	4	19	55228	6504	0.704295971780084	0	1.0	868.2916309990105	0.0			0	1.0	1.0	0.0	1.0	0	207	0	0	0	unknown
6	1	4	20	19224	3548	0.7043885674793273	0	1.0	909.257360999618	0.0			0	1.0	1.0	0.0	1.0	0	208	0	0	0	unknown
6	1	4	21	33944	6399	0.7044347792398185	0	1.0	861.1000200035049	0.0			0	1.0	1.0	0.0	1.0	0	209	0	0	0	unknown
6	1	4	22	59226	3095	0.7044811641098931	0	1.0	1128.9702770009171	0.0			0	1.0	1.0	0.0	1.0	0	210	0	0	0	unknown
6	1	4	23	6308	9021	0.7045273761032149	0	1.0	1971.5818399999987	0.0			0	1.0	1.0	0.0	1.0	0	211	0	0	0	unknown
6	1	4	24	33434	9121	0.7045737589942291	0	1.0	755.7387999986531	0.0			0	1.0	1.0	0.0	1.0	0	212	0	0	0	unknown
6	1	4	25	1777	7852	0.7046199636533856	1	1.0	865.2185230021133	0.0	30.0		1	1.0	0.0	1.0	2.0	0	213	0	0	0	unknown
6	1	4	26	66496	1108	0.7046663543442264	1	1.0	804.154887999175	0.0	109.0		1	1.0	0.0	1.0	2.0	0	214	0	0	0	unknown
6	1	4	27	22414	8441	0.7047125523677095	0	1.0	702.6898380026978	0.0			0	1.0	1.0	0.0	1.0	0	215	0	0	0	unknown
6	1	4	28	24016	9826	0.704758950509131	0	0.0	3015.4831159998134	1.0			0	0.0	1.0	1.0	2.0	0	216	0	0	0	unknown
6	1	4	29	33956	7559	0.7048051331657916	0	1.0	709.1306980000809	0.0			0	1.0	1.0	0.0	1.0	0	217	0	0	0	unknown
6	1	4	30	18384	2880	0.7048977290978655	0	0.0	1170.1785169971115	0.0			0	0.0	0.0	1.0	2.0	0	218	0	0	0	unknown
6	1	4	31	56172	9949	0.7049441339913755	0	1.0	862.7234509986009	0.0			0	1.0	1.0	0.0	1.0	0	219	0	0	0	unknown
6	1	4	32	30391	7441	0.7049903101287782	1	0.0	1503.7140489985177	0.0	196.0		1	0.0	1.0	0.0	1.0	0	220	0	0	0	unknown
6	1	4	33	59903	4751	0.7050366100156679	0	1.0	730.9122149999893	0.0			0	1.0	1.0	0.0	1.0	0	221	0	0	0	unknown
6	1	4	34	14356	5679	0.7050828093197196	0	1.0	928.936476000672	0.0			0	1.0	1.0	0.0	1.0	0	222	0	0	0	unknown
6	1	4	35	22892	9865	0.7051291203824803	1	1.0	1075.6200809992151	0.0	133.0		1	1.0	0.0	1.0	2.0	0	223	0	0	0	unknown
6	1	4	36	23626	1645	0.7051753940759226	0	1.0	870.9286119992613	0.0			0	1.0	1.0	0.0	1.0	0	224	0	0	0	unknown
6	1	4	37	54599	1266	0.7052217088639736	1	1.0	909.0347599994858	0.0	92.0		1	1.0	0.0	1.0	2.0	0	225	0	0	0	unknown
6	1	4	38	46786	1549	0.7052679798798634	0	1.0	833.3104270022886	0.0			0	1.0	1.0	0.0	1.0	0	226	0	0	0	unknown
6	1	4	39	23823	4229	0.7053142786026	1	1.0	770.3892629979235	0.0	98.0		1	1.0	0.0	1.0	2.0	0	227	0	0	0	unknown
6	1	4	40	11461	9562	0.7053605737164615	0	1.0	1414.1382859997975	0.0			0	1.0	1.0	0.0	1.0	0	228	0	0	0	unknown
6	1	4	41	12525	6187	0.7054531535832211	0	1.0	818.4016790000896	0.0			0	1.0	1.0	0.0	1.0	0	229	0	0	0	unknown
6	1	4	42	40834	8748	0.7054994564969091	1	1.0	1303.273811001418	0.0	187.0		1	1.0	0.0	1.0	2.0	0	230	0	0	0	unknown
6	1	4	43	22572	8374	0.7055457446258515	0	0.0	1769.1451860009693	0.0			0	0.0	0.0	1.0	2.0	0	231	0	0	0	unknown
6	1	4	44	42172	559	0.705592034268193	0	1.0	873.2409320000442	0.0			0	1.0	1.0	0.0	1.0	0	232	1	0	1	new
6	1	4	45	5603	53	0.7056383420713245	0	1.0	749.7161370010872	0.0			0	1.0	1.0	0.0	1.0	0	233	1	0	1	new
6	1	4	46	2608	8043	0.7056846329942345	0	1.0	841.2674350001907	0.0			0	1.0	1.0	0.0	1.0	0	234	0	0	0	unknown
6	1	4	47	40164	8972	0.7057309307856485	0	1.0	929.392376998294	0.0			0	1.0	1.0	0.0	1.0	0	235	0	0	0	unknown
6	1	4	48	16409	5860	0.7057772123953328	0	1.0	1553.9383389987051	0.0			0	1.0	1.0	0.0	1.0	0	236	0	0	0	unknown
6	1	4	49	7183	3756	0.7058235151926056	0	1.0	741.3028410010157	0.0			0	1.0	1.0	0.0	1.0	0	237	0	0	0	unknown
6	1	4	50	31959	4734	0.7058698040200397	0	1.0	981.133774999762	0.0			0	1.0	1.0	0.0	1.0	0	238	0	0	0	unknown
6	1	4	51	32700	8985	0.7059160956414416	0	1.0	986.3756920021841	0.0			0	1.0	1.0	0.0	1.0	0	239	0	0	0	unknown
6	1	4	52	14507	5862	0.705962392152287	0	1.0	3477.952878998621	1.0			0	1.0	1.0	1.0	1.0	0	240	0	0	0	unknown
6	1	4	53	68325	1681	0.7060549862217158	0	1.0	1608.6258690011164	0.0			0	1.0	1.0	0.0	1.0	0	241	0	0	0	unknown
6	1	4	54	20594	8054	0.7061012795893475	1	0.0	1019.3951559995184	0.0	100.0		1	0.0	1.0	0.0	1.0	0	242	0	0	0	unknown
6	1	4	55	1891	1983	0.7061475692316889	0	1.0	981.0294480012088	0.0			0	1.0	1.0	0.0	1.0	0	243	0	0	0	unknown
6	1	4	56	45298	7973	0.7061938628321514	0	1.0	777.1142310011783	0.0			0	1.0	1.0	0.0	1.0	0	244	0	0	0	unknown
6	1	4	57	36265	2469	0.7062401635339483	0	0.0	1449.903403998178	0.0			0	0.0	0.0	1.0	2.0	0	245	0	0	0	unknown
6	1	4	58	21602	265	0.7062864565523341	0	1.0	562.1533989979072	0.0			0	1.0	1.0	0.0	1.0	0	246	1	0	1	new
6	1	4	59	62303	860	0.7063326495699584	0	1.0	748.5321239983023	0.0			0	1.0	1.0	0.0	1.0	0	247	1	0	1	new
6	1	4	60	39770	3951	0.7063789404928684	0	1.0	777.8002980012387	0.0			0	1.0	1.0	0.0	1.0	0	248	0	0	0	unknown
6	1	4	61	66416	3444	0.7064252430573105	1	1.0	819.1474279992691	0.0	167.0		1	1.0	0.0	1.0	2.0	0	249	0	0	0	unknown
6	1	4	62	5302	45	0.7064715361921116	0	1.0	1002.8062220007996	0.0			0	1.0	1.0	0.0	1.0	0	250	1	0	1	new
6	1	5	1	15493	187	0.7089117722352966	0	1.0	845.1574040009291	0.0			0	1.0	1.0	0.0	1.0	0	251	1	0	1	new
6	1	5	2	19724	6960	0.7089580660685896	0	1.0	1232.803299997613	0.0			0	1.0	1.0	0.0	1.0	0	252	0	0	0	unknown
6	1	5	3	35099	9857	0.7090043562930077	0	0.0	783.5772860016733	0.0			0	0.0	0.0	1.0	2.0	0	253	0	0	0	unknown
6	1	5	4	30163	9133	0.7090506536187604	0	1.0	749.2186140007105	0.0			0	1.0	1.0	0.0	1.0	0	254	0	0	0	unknown
6	1	5	5	3775	8620	0.709096948383376	0	1.0	1046.3279069990676	0.0			0	1.0	1.0	0.0	1.0	0	255	0	0	0	unknown
6	1	5	6	25288	323	0.7091432443121448	0	1.0	649.7817950003082	0.0			0	1.0	1.0	0.0	1.0	0	256	1	0	1	new
6	1	5	7	45992	7974	0.7091895375633612	0	1.0	902.908137999475	0.0			0	1.0	1.0	0.0	1.0	0	257	0	0	0	unknown
6	1	5	8	59223	3060	0.7092358293011785	0	1.0	791.8349280007533	0.0			0	1.0	1.0	0.0	1.0	0	258	0	0	0	unknown
6	1	5	9	4003	3271	0.709282125113532	0	1.0	1025.6673290023173	0.0			0	1.0	1.0	0.0	1.0	0	259	0	0	0	unknown
6	1	5	10	8064	5081	0.709328418597579	0	1.0	1207.3704330032342	0.0			0	1.0	1.0	0.0	1.0	0	260	0	0	0	unknown
6	1	5	11	34492	4741	0.7094210060313344	0	1.0	705.5523730014102	0.0			0	1.0	1.0	0.0	1.0	0	261	0	0	0	unknown
6	1	5	12	13427	1085	0.7094672988168895	0	1.0	684.326702998078	0.0			0	1.0	1.0	0.0	1.0	0	262	0	0	0	unknown
6	1	5	13	27519	6570	0.7095135936979204	0	1.0	887.5156639987836	0.0			0	1.0	1.0	0.0	1.0	0	263	0	0	0	unknown
6	1	5	14	31959	4734	0.7095598897431045	1	1.0	907.3907940000937	0.0	25.0		1	1.0	0.0	1.0	2.0	0	264	0	0	0	unknown
6	1	5	15	21602	265	0.709606175427325	1	1.0	871.8768720027582	0.0	18.0		1	1.0	0.0	1.0	2.0	0	265	1	0	2	easy
6	1	5	16	70752	2980	0.7096524757798761	1	1.0	814.7854979979456	0.0	116.0	119.0	1	1.0	0.0	1.0	2.0	0	266	0	0	0	unknown
6	1	5	17	23513	6150	0.7096987640252336	0	1.0	1129.490823001106	0.0			0	1.0	1.0	0.0	1.0	0	267	0	0	0	unknown
6	1	5	18	6559	66	0.7097450600704178	0	1.0	838.2455820028554	0.0			0	1.0	1.0	0.0	1.0	0	268	1	0	1	new
6	1	5	19	32552	5550	0.7097913610050454	0	1.0	902.8987550009331	0.0			0	1.0	1.0	0.0	1.0	0	269	0	0	0	unknown
6	1	5	20	49940	6106	0.7098376539070159	0	1.0	788.4012920003441	0.0			0	1.0	1.0	0.0	1.0	0	270	0	0	0	unknown
6	1	5	21	45298	7973	0.7098839399404823	1	1.0	770.5008480006654	0.0	26.0		1	1.0	0.0	1.0	2.0	0	271	0	0	0	unknown
6	1	5	22	36313	4401	0.709930244483985	0	1.0	1186.5756369988956	0.0			0	1.0	1.0	0.0	1.0	0	272	0	0	0	unknown
6	1	5	23	39690	2727	0.710022832150571	0	1.0	1402.7113119991554	0.0			0	1.0	1.0	0.0	1.0	0	273	0	0	0	unknown
6	1	5	24	41119	6036	0.7100691170198842	0	1.0	829.687303998071	0.0			0	1.0	1.0	0.0	1.0	0	274	0	0	0	unknown
6	1	5	25	51500	7741	0.7101153181865811	0	1.0	890.3275299999223	0.0			0	1.0	1.0	0.0	1.0	0	275	0	0	0	unknown
6	1	5	26	24689	2387	0.710161609458737	0	1.0	1651.5506930008996	0.0			0	1.0	1.0	0.0	1.0	0	276	0	0	0	unknown
6	1	5	27	55433	7130	0.7102079099277034	0	1.0	843.4401010017609	0.0			0	1.0	1.0	0.0	1.0	0	277	0	0	0	unknown
6	1	5	28	3746	6647	0.7102542059728875	0	1.0	715.8081409979785	0.0			0	1.0	1.0	0.0	1.0	0	278	0	0	0	unknown
6	1	5	29	29463	5925	0.7103004987584426	1	1.0	987.2795670016784	0.0	118.0		1	1.0	0.0	1.0	2.0	0	279	0	0	0	unknown
6	1	5	30	51562	3686	0.7103467866545543	0	1.0	786.0902020001959	0.0			0	1.0	1.0	0.0	1.0	0	280	0	0	0	unknown
6	1	5	31	70336	970	0.7103930806042627	1	1.0	929.5656340000276	0.0	153.0		1	1.0	0.0	1.0	2.0	0	281	1	0	2	easy
6	1	5	32	16724	201	0.7104393821209669	0	1.0	1055.3312550000555	0.0			0	1.0	1.0	0.0	1.0	0	282	1	0	1	new
6	1	5	33	45940	4687	0.7104856735095381	1	1.0	718.8672439988295	0.0	91.0		1	1.0	0.0	1.0	2.0	0	283	0	0	0	unknown
6	1	5	34	24689	2387	0.710578262573108	1	1.0	767.0458129978215	0.0	7.0		1	1.0	0.0	1.0	2.0	0	284	0	0	0	unknown
6	1	5	35	1942	6349	0.7106245576869696	0	1.0	846.521499002847	0.0			0	1.0	1.0	0.0	1.0	0	285	0	0	0	unknown
6	1	5	36	65294	3457	0.7106708562932909	1	1.0	846.0362299992995	0.0	85.0		1	1.0	0.0	1.0	2.0	0	286	0	0	0	unknown
6	1	5	37	17904	5237	0.7107171380193904	0	1.0	2052.62746200242	0.0			0	1.0	1.0	0.0	1.0	0	287	0	0	0	unknown
6	1	5	38	17904	5237	0.7107634396525099	1	1.0	702.7496680020704	0.0	0.0		1	1.0	0.0	1.0	2.0	0	288	0	0	0	unknown
6	1	5	39	66500	5169	0.7108097303425893	1	1.0	865.2033270009268	0.0	180.0	222.0	1	1.0	0.0	1.0	2.0	0	289	0	0	0	unknown
6	1	5	40	49280	2284	0.7108560245251283	0	1.0	1108.0766609993589	0.0			0	1.0	1.0	0.0	1.0	0	290	0	0	0	unknown
6	1	5	41	8817	4210	0.7109023228986188	0	1.0	936.3693490013248	0.0			0	1.0	1.0	0.0	1.0	0	291	0	0	0	unknown
6	1	5	42	15136	3597	0.7109486130066215	0	0.0	1390.86098399639	0.0			0	0.0	0.0	1.0	2.0	0	292	0	0	0	unknown
6	1	5	43	26873	2768	0.7110412014881148	0	1.0	982.1029230006387	0.0			0	1.0	1.0	0.0	1.0	0	293	0	0	0	unknown
6	1	5	44	59968	5714	0.7110874920617789	0	1.0	1213.187776000268	0.0			0	1.0	1.0	0.0	1.0	0	294	0	0	0	unknown
6	1	5	45	1777	7852	0.7111337851965799	1	1.0	853.0290819981019	0.0	81.0	112.0	1	1.0	0.0	1.0	2.0	0	295	0	0	0	unknown
6	1	5	46	2965	9788	0.7111800793791189	0	1.0	733.5087669998755	0.0			0	1.0	1.0	0.0	1.0	0	296	0	0	0	unknown
6	1	5	47	29060	9094	0.7112263836897909	0	1.0	936.2645120017987	0.0			0	1.0	1.0	0.0	1.0	0	297	0	0	0	unknown
6	1	5	48	71971	2607	0.7112725845072418	0	1.0	822.3246500019741	0.0			0	1.0	1.0	0.0	1.0	0	298	0	0	0	unknown
6	1	5	49	3684	9272	0.7113188694929704	0	1.0	777.2995170016655	0.0			0	1.0	1.0	0.0	1.0	0	299	0	0	0	unknown
6	1	5	50	50085	5192	0.71136516390834	0	1.0	1461.5967659992748	0.0			0	1.0	1.0	0.0	1.0	0	300	0	0	0	unknown
6	1	5	51	33959	7185	0.7114114618161693	0	1.0	1102.2226599998248	0.0			0	1.0	1.0	0.0	1.0	0	301	0	0	0	unknown
6	1	5	52	13098	6581	0.711457751574926	0	1.0	941.0734340017369	0.0			0	1.0	1.0	0.0	1.0	0	302	0	0	0	unknown
6	1	5	53	19300	1492	0.7115040462231264	0	1.0	689.4471800005704	0.0			0	1.0	1.0	0.0	1.0	0	303	0	0	0	unknown
6	1	5	54	58694	2196	0.711550339940004	0	1.0	916.3717470000848	0.0			0	1.0	1.0	0.0	1.0	0	304	0	0	0	unknown
6	1	5	55	49207	7998	0.7116429316811262	0	1.0	703.229859998828	0.0			0	1.0	1.0	0.0	1.0	0	305	0	0	0	unknown
6	1	5	56	40576	531	0.7116892269114032	0	1.0	725.8859710018442	0.0			0	1.0	1.0	0.0	1.0	0	306	1	0	1	new
6	1	5	57	31440	6520	0.7117355214431881	0	1.0	1545.7569419995707	0.0			0	1.0	1.0	0.0	1.0	0	307	0	0	0	unknown
6	1	5	58	41089	3898	0.7117818162078037	0	1.0	903.059101998224	0.0			0	1.0	1.0	0.0	1.0	0	308	0	0	0	unknown
6	1	5	59	51872	9743	0.7118281035218387	0	1.0	702.8446149997761	0.0			0	1.0	1.0	0.0	1.0	0	309	0	0	0	unknown
6	1	5	60	1805	2430	0.7118744028266519	0	1.0	829.0163040001061	0.0			0	1.0	1.0	0.0	1.0	0	310	0	0	0	unknown
6	1	5	61	32030	3694	0.7119206975912675	1	1.0	1383.6450960006914	0.0	214.0		1	1.0	0.0	1.0	2.0	0	311	0	0	0	unknown
6	1	5	62	19224	3548	0.7119669830426573	1	1.0	730.1824590031174	0.0	103.0		1	1.0	0.0	1.0	2.0	0	312	0	0	0	unknown
6	1	5	63	13289	1939	0.7120132856070995	0	1.0	1146.460975996888	0.0			0	1.0	1.0	0.0	1.0	0	313	0	0	0	unknown
6	1	6	1	37157	1129	0.7135049201315268	0	1.0	745.4398619993298	0.0			0	1.0	1.0	0.0	1.0	0	314	0	0	0	unknown
6	1	6	2	56680	3996	0.7135512159438803	0	1.0	702.1562660011114	0.0			0	1.0	1.0	0.0	1.0	0	315	0	0	0	unknown
6	1	6	3	6257	5160	0.7135975032579153	0	0.0	2660.690507000254	1.0			0	0.0	1.0	1.0	2.0	0	316	0	0	0	unknown
6	1	6	4	34029	2539	0.7136438123416154	0	1.0	670.8815499987395	0.0			0	1.0	1.0	0.0	1.0	0	317	0	0	0	unknown
6	1	6	5	34574	5155	0.713690094766207	0	1.0	730.2944510011001	0.0			0	1.0	1.0	0.0	1.0	0	318	0	0	0	unknown
6	1	6	6	23554	3647	0.713736412115395	0	1.0	736.1382739982217	0.0			0	1.0	1.0	0.0	1.0	0	319	0	0	0	unknown
6	1	6	7	14161	7233	0.7137826778925955	0	1.0	992.453127000772	0.0			0	1.0	1.0	0.0	1.0	0	320	0	0	0	unknown
6	1	6	8	68492	5772	0.713829006650485	1	1.0	770.5667490008636	0.0	234.0		1	1.0	0.0	1.0	2.0	0	321	0	0	0	unknown
6	1	6	9	23065	5761	0.7138752612518146	0	1.0	828.4277289967577	0.0			0	1.0	1.0	0.0	1.0	0	322	0	0	0	unknown
6	1	6	10	36103	9964	0.7139216031646355	0	1.0	987.4973260011757	0.0			0	1.0	1.0	0.0	1.0	0	323	0	0	0	unknown
6	1	6	11	35913	3903	0.7139678543899208	0	1.0	822.4831789993914	0.0			0	1.0	1.0	0.0	1.0	0	324	0	0	0	unknown
6	1	6	12	38468	9657	0.7140142001444473	0	1.0	672.7713130021584	0.0			0	1.0	1.0	0.0	1.0	0	325	0	0	0	unknown
6	1	6	13	53013	1808	0.7141067819902673	0	1.0	960.4590720009583	0.0			0	1.0	1.0	0.0	1.0	0	326	0	0	0	unknown
6	1	6	14	13884	3036	0.714153035194613	0	1.0	1144.115936000162	0.0			0	1.0	1.0	0.0	1.0	0	327	0	0	0	unknown
6	1	6	15	41444	9484	0.7141993779223412	0	1.0	898.4741239983122	0.0			0	1.0	1.0	0.0	1.0	0	328	0	0	0	unknown
6	1	6	16	52746	4025	0.7142456154106184	1	1.0	977.4255429983896	0.0	155.0	156.0	1	1.0	0.0	1.0	2.0	0	329	0	0	0	unknown
6	1	6	17	10229	6068	0.7142919738544151	0	1.0	741.5927130023192	0.0			0	1.0	1.0	0.0	1.0	0	330	0	0	0	unknown
6	1	6	18	15894	5418	0.714338208315894	0	1.0	731.3044750007974	0.0			0	1.0	1.0	0.0	1.0	0	331	0	0	0	unknown
6	1	6	19	16485	4005	0.7143845689715816	0	1.0	715.691239998705	0.0			0	1.0	1.0	0.0	1.0	0	332	0	0	0	unknown
6	1	6	20	40673	9960	0.7144308048300445	0	1.0	764.9134849998518	0.0			0	1.0	1.0	0.0	1.0	0	333	0	0	0	unknown
6	1	6	21	25614	6726	0.7144771680468693	1	1.0	685.6008450013178	0.0	193.0		1	1.0	0.0	1.0	2.0	0	334	0	0	0	unknown
6	1	6	22	39218	2504	0.7145233902847394	0	1.0	1022.3655339977996	0.0			0	1.0	1.0	0.0	1.0	0	335	0	0	0	unknown
6	1	6	23	24758	2735	0.7146159749245271	0	1.0	1222.1335639987956	0.0			0	1.0	1.0	0.0	1.0	0	336	0	0	0	unknown
6	1	6	24	18869	8174	0.7146623580483719	0	1.0	814.9859559998731	0.0			0	1.0	1.0	0.0	1.0	0	337	0	0	0	unknown
6	1	6	25	13698	7260	0.7147085628239437	0	1.0	1419.1253649987627	0.0			0	1.0	1.0	0.0	1.0	0	338	0	0	0	unknown
6	1	6	26	50419	5558	0.7147548713255673	0	1.0	927.9845549972378	0.0			0	1.0	1.0	0.0	1.0	0	339	0	0	0	unknown
6	1	6	27	57680	7780	0.7148011466488242	0	1.0	1320.08493900139	0.0			0	1.0	1.0	0.0	1.0	0	340	0	0	0	unknown
6	1	6	28	62730	1014	0.7148474620189517	0	1.0	2050.1061830000253	0.0			0	1.0	1.0	0.0	1.0	0	341	0	0	0	unknown
6	1	6	29	27907	3638	0.7148937440942972	0	1.0	764.5192730014969	0.0			0	1.0	1.0	0.0	1.0	0	342	0	0	0	unknown
6	1	6	30	70767	6843	0.7149400464259088	1	1.0	825.495053002669	0.0	240.0		1	1.0	0.0	1.0	2.0	0	343	0	0	0	unknown
6	1	6	31	30579	9313	0.714986331644468	0	1.0	1054.822702997626	0.0			0	1.0	2.0	0.0	1.0	0	344	0	0	0	unknown
6	1	6	32	8978	1702	0.7150325175607576	0	1.0	904.2908560004433	0.0			0	1.0	1.0	0.0	1.0	0	345	0	0	0	unknown
6	1	6	33	45596	616	0.7150788254803045	0	1.0	739.0954009970301	0.0			0	1.0	1.0	0.0	1.0	0	346	1	1	1	new
6	1	6	34	32470	3640	0.7151251140749081	0	1.0	1104.4692569994368	0.0			0	1.0	1.0	0.0	1.0	0	347	0	0	0	unknown
6	1	6	35	6517	8318	0.7152177053503692	0	1.0	1124.4258389997412	0.0			0	1.0	1.0	0.0	1.0	0	348	0	0	0	unknown
6	1	6	36	67172	9017	0.7152639959240332	0	1.0	773.5437830015143	0.0			0	1.0	1.0	0.0	1.0	0	349	0	0	0	unknown
6	1	6	37	5259	9347	0.715310288593173	0	1.0	801.8599259994515	0.0			0	1.0	1.0	0.0	1.0	0	350	0	0	0	unknown
6	1	6	38	3839	5238	0.7153565865010023	0	1.0	1701.917793998291	0.0			0	1.0	1.0	0.0	1.0	0	351	0	0	0	unknown
6	1	6	39	60264	6246	0.715402874047868	0	1.0	829.8485539999093	0.0			0	1.0	1.0	0.0	1.0	0	352	0	0	0	unknown
6	1	6	40	17127	3194	0.7154491698602214	1	1.0	850.6135179995907	0.0	158.0		1	1.0	0.0	1.0	2.0	0	353	0	0	0	unknown
6	1	6	41	53053	727	0.7154954695142804	1	1.0	722.6670700001706	0.0	297.0		1	1.0	0.0	1.0	2.0	0	354	1	1	2	easy
6	1	6	42	37467	6311	0.7155417631147429	0	1.0	902.9805030004353	0.0			0	1.0	1.0	0.0	1.0	0	355	0	0	0	unknown
6	1	6	43	27006	8935	0.7155880585778503	1	1.0	776.9507250013702	0.0	189.0		1	1.0	0.0	1.0	2.0	0	356	0	0	0	unknown
6	1	6	44	9918	116	0.7156806425191462	0	1.0	1878.7158750019444	0.0			0	1.0	1.0	0.0	1.0	0	357	1	0	1	new
6	1	6	45	30779	2297	0.7157269407762215	0	1.0	756.6819640014728	0.0			0	1.0	1.0	0.0	1.0	0	358	0	0	0	unknown
6	1	6	46	71490	3293	0.715773235191591	0	1.0	733.1241140018391	0.0			0	1.0	1.0	0.0	1.0	0	359	0	0	0	unknown
6	1	6	47	26599	351	0.7158195206429809	0	1.0	1102.9250499996124	0.0			0	1.0	1.0	0.0	1.0	0	360	1	0	1	new
6	1	6	48	72293	2336	0.7158658183179795	0	1.0	764.0314410018617	0.0			0	1.0	1.0	0.0	1.0	0	361	0	0	0	unknown
6	1	6	49	21602	265	0.7159121154109016	1	1.0	665.1327289982873	0.0	96.0	115.0	1	1.0	0.0	1.0	2.0	0	362	1	0	3	easy
6	1	6	50	56172	9949	0.7159584100591018	1	1.0	622.7005069995357	0.0	143.0		1	1.0	0.0	1.0	2.0	0	363	0	0	0	unknown
6	1	6	51	15894	5418	0.7160047048237174	1	1.0	645.7420219994674	0.0	32.0		1	1.0	0.0	1.0	2.0	0	364	0	0	0	unknown
6	1	6	52	68221	6017	0.716051000286825	0	1.0	1147.7494259997911	0.0			0	1.0	1.0	0.0	1.0	0	365	0	0	0	unknown
6	1	6	53	7153	8280	0.7161435822490602	0	1.0	736.5288490000238	0.0			0	1.0	1.0	0.0	1.0	0	366	0	0	0	unknown
6	1	6	54	67274	9965	0.7161898846970871	0	0.0	2571.39332099905	1.0			0	0.0	1.0	1.0	2.0	0	367	0	0	0	unknown
6	1	6	55	39329	8516	0.7162361764349043	0	1.0	614.0706359983596	0.0			0	1.0	1.0	0.0	1.0	0	368	0	0	0	unknown
6	1	6	56	20594	8054	0.7162824685219675	1	1.0	785.5173499992815	0.0	126.0	227.0	1	1.0	0.0	1.0	2.0	0	369	0	0	0	unknown
6	1	6	57	54599	1266	0.7163287637522444	1	1.0	734.4781020001392	0.0	144.0	237.0	1	1.0	0.0	1.0	2.0	0	370	0	0	0	unknown
6	1	6	58	51768	8093	0.7163749614264816	0	1.0	735.7573299996147	0.0			0	1.0	1.0	0.0	1.0	0	371	0	0	0	unknown
6	1	6	59	39943	8498	0.7164212550269439	0	1.0	730.607391000376	0.0			0	1.0	1.0	0.0	1.0	0	372	0	0	0	unknown
6	1	6	60	36265	2469	0.7164675529347732	1	1.0	688.6694399981934	0.0	127.0		1	1.0	0.0	1.0	2.0	0	373	0	0	0	unknown
6	1	6	61	60306	830	0.7165138454874977	0	1.0	902.1482979987921	0.0			0	1.0	1.0	0.0	1.0	0	374	1	0	1	new
6	1	6	62	72764	6274	0.7165601331507787	1	0.0	890.1623519996064	0.0	224.0		1	0.0	1.0	0.0	1.0	0	375	0	0	0	unknown
6	1	7	1	18869	8174	0.718145991093479	1	1.0	852.6476549996005	0.0	38.0		1	1.0	0.0	1.0	2.0	0	376	0	0	0	unknown
6	1	7	2	55843	4615	0.7181923590833321	0	1.0	843.7928140010625	0.0			0	1.0	1.0	0.0	1.0	0	377	0	0	0	unknown
6	1	7	3	16158	2736	0.7182385771302506	0	0.0	965.2302149988828	0.0			0	0.0	0.0	1.0	2.0	0	378	0	0	0	unknown
6	1	7	4	64072	5200	0.7182849552482365	1	1.0	2329.437446998781	1.0	291.0		1	1.0	1.0	1.0	2.0	0	379	0	0	0	unknown
6	1	7	5	34922	2330	0.7183311633998528	0	1.0	881.473976001871	0.0			0	1.0	1.0	0.0	1.0	0	380	0	0	0	unknown
6	1	7	6	46053	4470	0.7183775403536856	0	1.0	905.0323169976765	0.0			0	1.0	1.0	0.0	1.0	0	381	0	0	0	unknown
6	1	7	7	52792	4068	0.718423748970963	1	1.0	1087.7296300022863	0.0	304.0		1	1.0	0.0	1.0	2.0	0	382	0	0	0	unknown
6	1	7	8	47404	5858	0.718470150604844	0	1.0	979.749078000168	0.0			0	1.0	1.0	0.0	1.0	0	383	0	0	0	unknown
6	1	7	9	43269	1538	0.7185163421090692	1	1.0	687.0292040002823	0.0	300.0		1	1.0	0.0	1.0	2.0	0	384	0	0	0	unknown
6	1	7	10	16506	6560	0.7186089323367923	0	1.0	769.8989329983306	0.0			0	1.0	1.0	0.0	1.0	0	385	0	0	0	unknown
6	1	7	11	32553	8283	0.718655330594629	0	1.0	1002.0476289973884	0.0			0	1.0	1.0	0.0	1.0	0	386	0	0	0	unknown
6	1	7	12	6257	5160	0.7187015148811042	1	1.0	734.9009940007819	0.0	70.0		1	1.0	0.0	1.0	2.0	0	387	0	0	0	unknown
6	1	7	13	71490	3293	0.7187479273416101	1	1.0	826.5005909997852	0.0	28.0		1	1.0	0.0	1.0	2.0	0	388	0	0	0	unknown
6	1	7	14	27753	5965	0.718794111860916	1	1.0	949.8513500002445	0.0	218.0		1	1.0	0.0	1.0	2.0	0	389	0	0	0	unknown
6	1	7	15	28908	2408	0.7188405240885913	0	1.0	747.832910001307	0.0			0	1.0	1.0	0.0	1.0	0	390	0	0	0	unknown
6	1	7	16	57497	9667	0.7188866004580631	1	1.0	867.2446769996894	0.0	214.0		1	1.0	0.0	1.0	2.0	0	391	0	0	0	unknown
6	1	7	17	19176	1866	0.71893290290609	1	0.0	779.6527089994925	0.0	222.0		1	0.0	1.0	0.0	1.0	0	392	0	0	0	unknown
6	1	7	18	2352	3342	0.7189791827695444	0	1.0	879.5306319989321	0.0			0	1.0	1.0	0.0	1.0	0	393	0	0	0	unknown
6	1	7	19	62730	1014	0.7190254731103777	1	1.0	703.3432980024372	0.0	52.0		1	1.0	0.0	1.0	2.0	0	394	0	0	0	unknown
6	1	7	20	34447	7951	0.7191180695081129	0	1.0	845.912599001167	0.0			0	1.0	1.0	0.0	1.0	0	395	0	0	0	unknown
6	1	7	21	13985	4784	0.7191643581027165	0	1.0	1003.2043090031948	0.0			0	1.0	1.0	0.0	1.0	0	396	0	0	0	unknown
6	1	7	22	21080	5660	0.7192106518195942	0	1.0	964.3065000018398	0.0			0	1.0	1.0	0.0	1.0	0	397	0	0	0	unknown
6	1	7	23	67784	8315	0.7192569524049758	0	1.0	724.2915339993486	0.0			0	1.0	1.0	0.0	1.0	0	398	0	0	0	unknown
6	1	7	24	67886	1098	0.7193032455397769	0	1.0	605.1491220023308	0.0			0	1.0	1.0	0.0	1.0	0	399	0	0	0	unknown
6	1	7	25	46122	1431	0.7193495336687192	0	1.0	609.5712769965758	0.0			0	1.0	1.0	0.0	1.0	0	400	0	0	0	unknown
6	1	7	26	47404	5858	0.7193958305288106	1	1.0	836.7231439988245	0.0	17.0		1	1.0	0.0	1.0	2.0	0	401	0	0	0	unknown
6	1	7	27	64157	2848	0.7194421298336237	0	1.0	774.7539830015739	0.0			0	1.0	1.0	0.0	1.0	0	402	0	0	0	unknown
6	1	7	28	4787	36	0.7194884223863482	0	1.0	818.6562049995699	0.0			0	1.0	1.0	0.0	1.0	0	403	1	0	1	new
6	1	7	29	59258	6866	0.7195347187807783	0	1.0	702.5993759998528	0.0			0	1.0	1.0	0.0	1.0	0	404	0	0	0	unknown
6	1	7	30	67886	1098	0.7195810126140713	1	1.0	668.2961839978816	0.0	5.0		1	1.0	0.0	1.0	2.0	0	405	0	0	0	unknown
6	1	7	31	67784	8315	0.7196273016743361	1	1.0	702.7119400008814	0.0	7.0		1	1.0	0.0	1.0	2.0	0	406	0	0	0	unknown
6	1	7	32	52437	5663	0.7196735988836735	0	1.0	873.0875619985454	0.0			0	1.0	1.0	0.0	1.0	0	407	0	0	0	unknown
6	1	7	33	13736	2218	0.7197198995854704	0	1.0	866.1348150017147	0.0			0	1.0	1.0	0.0	1.0	0	408	0	0	0	unknown
6	1	7	34	47404	5858	0.7198124808492138	1	1.0	741.3609120012552	0.0	7.0	25.0	1	1.0	0.0	1.0	2.0	0	409	0	0	0	unknown
6	1	7	35	3684	9272	0.719858773634769	1	1.0	743.0556819999765	0.0	110.0		1	1.0	0.0	1.0	2.0	0	410	0	0	0	unknown
6	1	7	36	10139	8216	0.7199050647905096	0	1.0	877.9633479971379	0.0			0	1.0	1.0	0.0	1.0	0	411	0	0	0	unknown
6	1	7	37	11085	7520	0.7199513596715404	0	1.0	675.9449140008655	0.0			0	1.0	1.0	0.0	1.0	0	412	0	0	0	unknown
6	1	7	38	36051	5919	0.7199976556003093	0	0.0	2673.926962001133	1.0			0	0.0	1.0	1.0	2.0	0	413	0	0	0	unknown
6	1	7	39	29914	2451	0.720043955137953	0	1.0	630.919418999838	0.0			0	1.0	1.0	0.0	1.0	0	414	0	0	0	unknown
6	1	7	40	50703	9575	0.7200902528129518	0	1.0	578.2385530001193	0.0			0	1.0	1.0	0.0	1.0	0	415	0	0	0	unknown
6	1	7	41	34922	2330	0.7201365391956642	1	1.0	707.7839270023105	0.0	35.0		1	1.0	0.0	1.0	2.0	0	416	0	0	0	unknown
6	1	7	42	41423	7310	0.7201828319812194	0	0.0	1141.594675998931	0.0			0	0.0	0.0	1.0	2.0	0	417	0	0	0	unknown
6	1	7	43	34251	8175	0.7202290253480896	0	1.0	1021.49786299924	0.0			0	1.0	1.0	0.0	1.0	0	418	0	0	0	unknown
6	1	7	44	15988	2259	0.7202753282617776	1	1.0	831.1456170013117	0.0	274.0		1	1.0	0.0	1.0	2.0	0	419	0	0	0	unknown
6	1	7	45	36313	4401	0.7203216169727966	1	0.0	714.6997649979312	0.0	147.0		1	0.0	1.0	0.0	1.0	0	420	0	0	0	unknown
6	1	7	46	11429	3902	0.7204142144182696	1	0.0	1002.4172220000764	0.0	396.0		1	0.0	1.0	0.0	1.0	0	421	0	0	0	unknown
6	1	7	47	32797	9335	0.7204605055740103	0	1.0	1108.5316940007033	0.0			0	1.0	1.0	0.0	1.0	0	422	0	0	0	unknown
6	1	7	48	46264	2760	0.7205067996401339	0	1.0	685.3737710007408	0.0			0	1.0	1.0	0.0	1.0	0	423	0	0	0	unknown
6	1	7	49	68221	6017	0.720553090563044	1	1.0	766.5849309996701	0.0	58.0		1	1.0	0.0	1.0	2.0	0	424	0	0	0	unknown
6	1	7	50	40822	8170	0.7205993855604901	0	0.0	1276.8098779997672	0.0			0	0.0	0.0	1.0	2.0	0	425	0	0	0	unknown
6	1	7	51	47480	5262	0.7206456734566017	0	1.0	786.3007949999882	0.0			0	1.0	1.0	0.0	1.0	0	426	0	0	0	unknown
6	1	7	52	47480	5262	0.720691978582181	1	1.0	917.3793160007336	0.0	0.0		1	1.0	0.0	1.0	2.0	0	427	0	0	0	unknown
6	1	7	53	72293	2336	0.720738269155845	1	1.0	1689.2032970026776	0.0	66.0		1	1.0	0.0	1.0	2.0	0	428	0	0	0	unknown
6	1	7	54	42445	3862	0.7207845578668639	0	1.0	831.8715959976543	0.0			0	1.0	1.0	0.0	1.0	0	429	0	0	0	unknown
6	1	7	55	15357	8482	0.7208771526347845	0	1.0	753.0108729988569	0.0			0	1.0	1.0	0.0	1.0	0	430	0	0	0	unknown
6	1	7	56	10182	9525	0.7209234468173235	0	1.0	1249.8106349994487	0.0			0	1.0	1.0	0.0	1.0	0	431	0	0	0	unknown
6	1	7	57	51218	3450	0.7209697366924956	0	1.0	637.8716350009199	0.0			0	1.0	1.0	0.0	1.0	0	432	0	0	0	unknown
6	1	7	58	835	6692	0.7210160265676677	1	1.0	848.4513019975565	0.0	254.0		1	1.0	0.0	1.0	2.0	0	433	0	0	0	unknown
6	1	7	59	19182	230	0.7210623294813558	0	1.0	687.2149350019754	0.0			0	1.0	1.0	0.0	1.0	0	434	1	0	1	new
6	1	7	60	68138	5967	0.721108621568419	0	1.0	637.6222729995789	0.0			0	1.0	1.0	0.0	1.0	0	435	0	0	0	unknown
6	1	7	61	21500	7856	0.7211549113271757	0	1.0	603.5819909993734	0.0			0	1.0	1.0	0.0	1.0	0	436	0	0	0	unknown
6	1	7	62	56344	8586	0.721201209933497	0	1.0	683.502273997874	0.0			0	1.0	2.0	0.0	1.0	0	437	0	0	0	unknown
6	1	7	63	55433	7130	0.7212475063279271	1	0.0	731.2133910018019	0.0	160.0		1	0.0	1.0	0.0	1.0	0	438	0	0	0	unknown
6	1	8	1	42770	8109	0.7228706836467608	0	1.0	1390.7440170005427	0.0			0	1.0	1.0	0.0	1.0	0	439	0	0	0	unknown
6	1	8	2	6559	66	0.722916975733824	1	1.0	1014.084770999034	0.0	171.0		1	1.0	0.0	1.0	2.0	0	440	1	0	2	easy
6	1	8	3	72081	992	0.722963266656734	0	1.0	739.6457380018545	0.0			0	1.0	1.0	0.0	1.0	0	441	1	0	1	new
6	1	8	4	21496	2986	0.7230095579288899	0	1.0	1603.5029330014368	0.0			0	1.0	1.0	0.0	1.0	0	442	0	0	0	unknown
6	1	8	5	1476	1192	0.7230558561859652	0	1.0	1019.5439950002764	0.0			0	1.0	1.0	0.0	1.0	0	443	0	0	0	unknown
6	1	8	6	662	5568	0.7231021481566131	0	1.0	803.8350099996022	0.0			0	1.0	1.0	0.0	1.0	0	444	0	0	0	unknown
6	1	8	7	40091	2203	0.7231484398944303	0	1.0	748.4782150022512	0.0			0	1.0	1.0	0.0	1.0	0	445	0	0	0	unknown
6	1	8	8	33959	7185	0.7231947425752878	1	1.0	880.065582001407	0.0	144.0		1	1.0	0.0	1.0	2.0	0	446	0	0	0	unknown
6	1	8	9	8514	4001	0.7232410312863066	0	1.0	1050.5701990005036	0.0			0	1.0	1.0	0.0	1.0	0	447	0	0	0	unknown
6	1	8	10	66140	4285	0.7233336298959329	1	1.0	1272.9834530000517	1.0	261.0		1	1.0	1.0	1.0	2.0	0	448	0	0	0	unknown
6	1	8	11	36068	475	0.7233799140667542	0	1.0	919.1362659985317	0.0			0	1.0	1.0	0.0	1.0	0	449	1	0	1	new
6	1	8	12	31549	7336	0.7234262131387367	1	0.0	677.1612350021313	0.0	323.0		1	0.0	1.0	0.0	1.0	0	450	0	0	0	unknown
6	1	8	13	70266	1800	0.7234725035959854	0	1.0	703.8989309985482	0.0			0	1.0	1.0	0.0	1.0	0	451	0	0	0	unknown
6	1	8	14	33434	9121	0.7235187968472018	1	1.0	802.3454799986212	0.0	239.0		1	1.0	0.0	1.0	2.0	0	452	0	0	0	unknown
6	1	8	15	68487	7428	0.7235650909133255	0	1.0	862.393424999027	0.0			0	1.0	1.0	0.0	1.0	0	453	0	0	0	unknown
6	1	8	16	52437	5663	0.7236113938270136	1	1.0	941.297517998464	0.0	46.0		1	1.0	0.0	1.0	2.0	0	454	0	0	0	unknown
6	1	8	17	18195	6579	0.7236576791619881	0	1.0	712.9713920003269	0.0			0	1.0	1.0	0.0	1.0	0	455	0	0	0	unknown
6	1	8	18	34995	7917	0.723704091622494	0	1.0	679.5500209991587	0.0			0	1.0	1.0	0.0	1.0	0	456	0	0	0	unknown
6	1	8	19	7183	3756	0.7237503888318315	1	1.0	765.1816709985724	0.0	219.0		1	1.0	0.0	1.0	2.0	0	457	0	0	0	unknown
6	1	8	20	49940	6106	0.723842863808386	1	1.0	783.9887279988034	0.0	187.0		1	1.0	0.0	1.0	2.0	0	458	0	0	0	unknown
6	1	8	21	39525	2186	0.7238891560118645	0	0.0	887.7355699987673	0.0			0	0.0	0.0	1.0	2.0	0	459	0	0	0	unknown
6	1	8	22	55843	4615	0.7239353584591299	1	1.0	787.0262469987209	0.0	82.0		1	1.0	0.0	1.0	2.0	0	460	0	0	0	unknown
6	1	8	23	30326	4306	0.7239816534565761	0	1.0	978.6827940006334	0.0			0	1.0	1.0	0.0	1.0	0	461	0	0	0	unknown
6	1	8	24	55029	5523	0.7240279426332563	0	1.0	920.3196019989264	0.0			0	1.0	1.0	0.0	1.0	0	462	0	0	0	unknown
6	1	8	25	45992	7974	0.7240742404246702	1	1.0	806.7219570002635	0.0	205.0		1	1.0	0.0	1.0	2.0	0	463	0	0	0	unknown
6	1	8	26	37717	1196	0.7241205341415479	0	1.0	674.8408839994227	0.0			0	1.0	1.0	0.0	1.0	0	464	0	0	0	unknown
6	1	8	27	17098	9718	0.7241668293718247	1	1.0	744.133743999555	0.0	317.0		1	1.0	0.0	1.0	2.0	0	465	0	0	0	unknown
6	1	8	28	20907	9244	0.724213121458888	0	1.0	902.0633620020816	0.0			0	1.0	1.0	0.0	1.0	0	466	0	0	0	unknown
6	1	8	29	21764	2604	0.724259415292181	0	0.0	622.5979240007291	0.0			0	0.0	0.0	1.0	2.0	0	467	0	0	0	unknown
6	1	8	30	12897	4793	0.7243057105224578	0	1.0	1642.7952559970436	0.0			0	1.0	1.0	0.0	1.0	0	468	0	0	0	unknown
6	1	8	31	71754	988	0.7243982986547052	0	1.0	1470.9465480009385	0.0			0	1.0	1.0	0.0	1.0	0	469	1	0	1	new
6	1	8	32	52370	5894	0.7244445889955387	0	1.0	703.3264339988817	0.0			0	1.0	1.0	0.0	1.0	0	470	0	0	0	unknown
6	1	8	33	27741	1732	0.7244908856227993	0	1.0	845.8685429977778	0.0			0	1.0	1.0	0.0	1.0	0	471	0	0	0	unknown
6	1	8	34	7999	6066	0.7245371781755238	0	1.0	770.3045140005996	0.0			0	1.0	1.0	0.0	1.0	0	472	0	0	0	unknown
6	1	8	35	58451	7020	0.7245834753848612	0	1.0	716.7796200010343	0.0			0	1.0	1.0	0.0	1.0	0	473	0	0	0	unknown
6	1	8	36	40092	9798	0.7246297730598598	0	1.0	854.9809079995612	0.0			0	1.0	1.0	0.0	1.0	0	474	0	0	0	unknown
6	1	8	37	36213	1771	0.724676058627665	0	1.0	771.4847060015018	0.0			0	1.0	1.0	0.0	1.0	0	475	0	0	0	unknown
6	1	8	38	50940	5382	0.7247223580488935	0	1.0	618.9803970009962	0.0			0	1.0	1.0	0.0	1.0	0	476	0	0	0	unknown
6	1	8	39	35586	8917	0.7247686425689607	0	1.0	773.5021710032014	0.0			0	1.0	1.0	0.0	1.0	0	477	0	0	0	unknown
6	1	8	40	37467	6311	0.7248149472288787	1	1.0	729.1567070024029	0.0	122.0		1	1.0	0.0	1.0	2.0	0	478	0	0	0	unknown
6	1	8	41	52032	5514	0.7248612296534702	0	1.0	829.7955729976819	0.0			0	1.0	1.0	0.0	1.0	0	479	0	0	0	unknown
6	1	8	42	19410	3924	0.7249538217438384	0	1.0	758.7619250007264	0.0			0	1.0	1.0	0.0	1.0	0	480	0	0	0	unknown
6	1	8	43	21764	2604	0.7250001140637323	1	1.0	929.7133180007222	0.0	13.0		1	1.0	0.0	1.0	2.0	0	481	0	0	0	unknown
6	1	8	44	1476	1192	0.7250464075477793	1	1.0	856.8667079998704	0.0	38.0		1	1.0	0.0	1.0	2.0	0	482	0	0	0	unknown
6	1	8	45	66928	2755	0.7250927098793908	0	1.0	1048.4374120023858	0.0			0	1.0	1.0	0.0	1.0	0	483	0	0	0	unknown
6	1	8	46	68602	9761	0.7251389937009662	0	1.0	969.2157350000344	0.0			0	1.0	1.0	0.0	1.0	0	484	0	0	0	unknown
6	1	8	47	6532	1968	0.7251851967303082	0	0.0	882.0594210010314	0.0			0	0.0	0.0	1.0	2.0	0	485	0	0	0	unknown
6	1	8	48	33956	7559	0.7252314940560609	1	1.0	921.437082000921	0.0	268.0		1	1.0	0.0	1.0	2.0	0	486	0	0	0	unknown
6	1	8	49	48968	1551	0.7252777774119749	0	1.0	772.4727429995254	0.0			0	1.0	1.0	0.0	1.0	0	487	0	0	0	unknown
6	1	8	50	71351	6666	0.7253240856807678	1	0.0	908.3186950010712	0.0	336.0		1	0.0	1.0	0.0	1.0	0	488	0	0	0	unknown
6	1	8	51	40822	8170	0.7253703731112182	1	1.0	866.3316489983117	0.0	63.0		1	1.0	0.0	1.0	2.0	0	489	0	0	0	unknown
6	1	8	52	7183	3756	0.7254166698548942	1	1.0	1431.096353000612	1.0	32.0	252.0	1	1.0	1.0	1.0	2.0	0	490	0	0	0	unknown
6	1	8	53	47224	2262	0.7254629568196833	0	1.0	758.9107229978252	0.0			0	1.0	1.0	0.0	1.0	0	491	0	0	0	unknown
6	1	8	54	13985	4784	0.7255092585692182	1	1.0	881.9044459996803	0.0	95.0		1	1.0	0.0	1.0	2.0	0	492	0	0	0	unknown
6	1	8	55	59968	5714	0.725601839250885	1	1.0	1002.4442239991912	0.0	198.0		1	1.0	0.0	1.0	2.0	0	493	0	0	0	unknown
6	1	8	56	66496	1108	0.7256481401855126	1	1.0	718.0297250015428	0.0	279.0	389.0	1	1.0	0.0	1.0	2.0	0	494	0	0	0	unknown
6	1	8	57	37557	1224	0.7256944329710677	0	1.0	721.3060169997334	0.0			0	1.0	1.0	0.0	1.0	0	495	0	0	0	unknown
6	1	8	58	66873	9934	0.725740726920776	0	1.0	834.2149119998794	0.0			0	1.0	1.0	0.0	1.0	0	496	0	0	0	unknown
6	1	8	59	12326	1317	0.7257870240136981	0	1.0	802.7223139979469	0.0			0	1.0	1.0	0.0	1.0	0	497	0	0	0	unknown
6	1	8	60	58145	805	0.7258333171484991	0	1.0	554.3045939994045	0.0			0	1.0	1.0	0.0	1.0	0	498	1	0	1	new
6	1	8	61	14422	5274	0.7258796100504696	0	1.0	892.0107920021109	0.0			0	1.0	1.0	0.0	1.0	0	499	0	0	0	unknown
6	1	8	62	4350	5350	0.7259259007405489	0	1.0	706.08880600048	0.0			0	1.0	1.0	0.0	1.0	0	500	0	0	0	unknown
6	1	9	1	47224	2262	0.7283478203462436	1	1.0	1742.2518099992883	1.0	9.0		1	1.0	1.0	1.0	2.0	0	501	0	0	0	unknown
6	1	9	2	60264	6246	0.7283941156929358	1	0.0	1215.5164309988322	0.0	149.0		1	0.0	1.0	0.0	1.0	0	502	0	0	0	unknown
6	1	9	3	3684	9272	0.7284404058009386	1	1.0	788.3870109981218	0.0	92.0	203.0	1	1.0	0.0	1.0	2.0	0	503	0	0	0	unknown
6	1	9	4	34492	4741	0.728486697655171	1	1.0	1288.0968800018309	0.0	242.0		1	1.0	0.0	1.0	2.0	0	504	0	0	0	unknown
6	1	9	5	11943	145	0.7285329909063875	0	1.0	704.4993630006502	0.0			0	1.0	1.0	0.0	1.0	0	505	1	1	1	new
6	1	9	6	69062	6367	0.728579286369495	0	1.0	765.2347610019204	0.0			0	1.0	1.0	0.0	1.0	0	506	0	0	0	unknown
6	1	9	7	19224	3548	0.7286255873041227	1	1.0	685.7892930020171	0.0	194.0	298.0	1	1.0	0.0	1.0	2.0	0	507	0	0	0	unknown
6	1	9	8	11892	2752	0.728671878343448	0	1.0	984.9734599993097	0.0			0	1.0	2.0	0.0	1.0	0	508	0	0	0	unknown
6	1	9	9	19182	230	0.7287181614665313	1	1.0	842.1328839976921	0.0	74.0		1	1.0	0.0	1.0	2.0	0	509	1	0	2	easy
6	1	9	10	54754	9922	0.7287644708994776	0	1.0	750.7118379980966	0.0			0	1.0	2.0	0.0	1.0	0	510	0	0	0	unknown
6	1	9	11	44675	5889	0.7288107591448351	0	1.0	881.6714740023598	0.0			0	1.0	1.0	0.0	1.0	0	511	0	0	0	unknown
6	1	9	12	68232	2377	0.7288570542586967	0	1.0	829.5221170010336	0.0			0	1.0	1.0	0.0	1.0	0	512	0	0	0	unknown
6	1	9	13	19300	1492	0.7289032430853694	1	0.0	711.1341330019059	0.0	209.0		1	0.0	1.0	0.0	1.0	0	513	0	0	0	unknown
6	1	9	14	17127	3194	0.7289958372712135	1	1.0	686.8667399976403	0.0	160.0	319.0	1	1.0	0.0	1.0	2.0	0	514	0	0	0	unknown
6	1	9	15	1334	1899	0.7290421271463856	0	1.0	1021.5232709997508	0.0			0	1.0	1.0	0.0	1.0	0	515	0	0	0	unknown
6	1	9	16	15046	9049	0.7290884262183681	0	1.0	763.4445910007342	0.0			0	1.0	1.0	0.0	1.0	0	516	0	0	0	unknown
6	1	9	17	8064	5081	0.7291347198188304	1	1.0	715.2769970016379	0.0	256.0		1	1.0	0.0	1.0	2.0	0	517	0	0	0	unknown
6	1	9	18	18869	8174	0.7291810064343734	1	1.0	741.2092060003488	0.0	141.0	180.0	1	1.0	0.0	1.0	2.0	0	518	0	0	0	unknown
6	1	9	19	64965	1624	0.7292272988706827	0	0.0	856.0816239987616	0.0			0	0.0	0.0	1.0	2.0	0	519	0	0	0	unknown
6	1	9	20	38818	511	0.7292736649978905	0	0.0	786.3061640018714	0.0			0	0.0	0.0	1.0	2.0	0	520	1	0	1	new
6	1	9	21	8831	4420	0.7293198920087888	0	1.0	754.7386229998666	0.0			0	1.0	1.0	0.0	1.0	0	521	0	0	0	unknown
6	1	9	22	56770	5745	0.7293661908479407	0	1.0	924.1281449976669	0.0			0	1.0	1.0	0.0	1.0	0	522	0	0	0	unknown
6	1	9	23	70150	3492	0.72941248153802	0	1.0	959.5150250024744	0.0			0	1.0	1.0	0.0	1.0	0	523	0	0	0	unknown
6	1	9	24	66490	919	0.7294587716460227	0	1.0	702.4519030019292	0.0			0	1.0	1.0	0.0	1.0	0	524	1	0	1	new
6	1	9	25	72538	5733	0.7295513665303587	0	1.0	774.4840029990881	0.0			0	1.0	1.0	0.0	1.0	0	525	0	0	0	unknown
6	1	9	26	55828	8542	0.7295976540772244	0	1.0	832.9066369988141	0.0			0	1.0	1.0	0.0	1.0	0	526	0	0	0	unknown
6	1	9	27	40003	2220	0.7296439558267593	0	1.0	732.5564719976682	0.0			0	1.0	1.0	0.0	1.0	0	527	0	0	0	unknown
6	1	9	28	71233	984	0.7296902415109798	0	1.0	1311.8951649994415	0.0			0	1.0	1.0	0.0	1.0	0	528	1	0	1	new
6	1	9	29	13449	7057	0.7297365439590066	0	1.0	663.3364650006114	0.0			0	1.0	1.0	0.0	1.0	0	529	0	0	0	unknown
6	1	9	30	7175	5896	0.729782831040211	0	1.0	1128.3825609971243	0.0			0	1.0	1.0	0.0	1.0	0	530	0	0	0	unknown
6	1	9	31	35982	7390	0.729829129180871	0	1.0	712.7339269973163	0.0			0	1.0	1.0	0.0	1.0	0	531	0	0	0	unknown
6	1	9	32	43910	5139	0.729875426623039	0	1.0	892.7235240007576	0.0			0	1.0	1.0	0.0	1.0	0	532	0	0	0	unknown
6	1	9	33	9014	2320	0.7299217209219931	0	1.0	782.5078839996422	0.0			0	1.0	1.0	0.0	1.0	0	533	0	0	0	unknown
6	1	9	34	50493	6169	0.7299680126598104	0	1.0	718.7768270014203	0.0			0	1.0	1.0	0.0	1.0	0	534	0	0	0	unknown
6	1	9	35	20971	4523	0.7300143084721639	1	0.0	784.2491320006957	0.0	522.0		1	0.0	2.0	0.0	1.0	0	535	0	0	0	unknown
6	1	9	36	61586	7240	0.730106888921	0	1.0	1003.4246289978907	0.0			0	1.0	1.0	0.0	1.0	0	536	0	0	0	unknown
6	1	9	37	38122	6069	0.7301531916018575	0	1.0	692.6743859985436	0.0			0	1.0	1.0	0.0	1.0	0	537	0	0	0	unknown
6	1	9	38	34938	6817	0.7301993916044011	0	1.0	864.6199579998209	0.0			0	1.0	1.0	0.0	1.0	0	538	0	0	0	unknown
6	1	9	39	9014	2320	0.7302456760080531	1	1.0	788.6906860003363	0.0	5.0		1	1.0	0.0	1.0	2.0	0	539	0	0	0	unknown
6	1	9	40	39770	3951	0.7302919790381565	1	1.0	1090.6417309997776	0.0	291.0		1	1.0	0.0	1.0	2.0	0	540	0	0	0	unknown
6	1	9	41	69194	7568	0.7303382671670988	0	1.0	703.2212869999057	0.0			0	1.0	1.0	0.0	1.0	0	541	0	0	0	unknown
6	1	9	42	46955	7447	0.7303846102440729	0	1.0	682.4141760007478	0.0			0	1.0	1.0	0.0	1.0	0	542	0	0	0	unknown
6	1	9	43	22064	6540	0.730430852738209	0	1.0	609.5914500001527	0.0			0	1.0	1.0	0.0	1.0	0	543	0	0	0	unknown
6	1	9	44	63181	2255	0.7304771556518971	0	1.0	925.5217369973251	0.0			0	1.0	1.0	0.0	1.0	0	544	0	0	0	unknown
6	1	9	45	604	9088	0.7305697435513138	0	1.0	792.7325349992316	0.0			0	1.0	1.0	0.0	1.0	0	545	0	0	0	unknown
6	1	9	46	41786	9124	0.7306160365696996	0	1.0	777.1049839975603	0.0			0	1.0	1.0	0.0	1.0	0	546	0	0	0	unknown
6	1	9	47	71490	3293	0.7306623227195814	1	1.0	808.1662889999278	0.0	158.0	187.0	1	1.0	0.0	1.0	2.0	0	547	0	0	0	unknown
6	1	9	48	5560	2821	0.7307086248183622	0	1.0	743.1026010017376	0.0			0	1.0	1.0	0.0	1.0	0	548	0	0	0	unknown
6	1	9	49	60292	4095	0.7307549187680706	0	1.0	964.1586729994742	0.0			0	1.0	1.0	0.0	1.0	0	549	0	0	0	unknown
6	1	9	50	59903	4751	0.7308012106223031	1	1.0	989.5911550011078	0.0	328.0		1	1.0	0.0	1.0	2.0	0	550	0	0	0	unknown
6	1	9	51	66928	2755	0.730847506551072	1	1.0	809.6508750022621	0.0	67.0		1	1.0	0.0	1.0	2.0	0	551	0	0	0	unknown
6	1	9	52	49901	7655	0.73089379677549	0	1.0	640.0027119998413	0.0			0	1.0	1.0	0.0	1.0	0	552	0	0	0	unknown
6	1	9	53	65631	3807	0.7309400961967185	0	1.0	563.2983840005181	0.0			0	1.0	1.0	0.0	1.0	0	553	0	0	0	unknown
6	1	9	54	65294	3457	0.7309863892151042	1	1.0	754.9049169974752	0.0	267.0	353.0	1	1.0	0.0	1.0	2.0	0	554	0	0	0	unknown
6	1	9	55	42770	8109	0.731078980024904	1	1.0	1169.566633998329	0.0	115.0		1	1.0	0.0	1.0	2.0	0	555	0	0	0	unknown
6	1	9	56	398	6054	0.7311252682702615	0	1.0	902.7007579970813	0.0			0	1.0	1.0	0.0	1.0	0	556	0	0	0	unknown
6	1	9	57	35856	9508	0.7311715638497844	0	1.0	772.0815239990769	0.0			0	1.0	1.0	0.0	1.0	0	557	0	0	0	unknown
6	1	9	58	11193	3768	0.7312178616411983	0	1.0	910.2980610005033	0.0			0	1.0	1.0	0.0	1.0	0	558	0	0	0	unknown
6	1	9	59	6132	6410	0.7312641503522171	0	1.0	670.5739190001623	0.0			0	1.0	2.0	0.0	1.0	0	559	0	0	0	unknown
6	1	9	60	43784	2328	0.7313103541964665	0	1.0	902.7964470005827	0.0			0	1.0	1.0	0.0	1.0	0	560	0	0	0	unknown
6	1	9	61	65631	3807	0.7313566389493644	1	1.0	768.6976629993296	0.0	7.0		1	1.0	0.0	1.0	2.0	0	561	0	0	0	unknown
6	1	9	62	68	7697	0.7314029322005808	0	1.0	685.8657250013492	0.0			0	1.0	1.0	0.0	1.0	0	562	0	0	0	unknown
6	1	9	63	15770	8816	0.7314492322038859	0	1.0	677.681779001432	0.0			0	1.0	1.0	0.0	1.0	0	563	0	0	0	unknown
6	1	10	1	66416	3444	0.7337801082758232	1	1.0	1186.648299000808	0.0	314.0	482.0	1	1.0	0.0	1.0	2.0	0	564	0	0	0	unknown
6	1	10	2	36031	7744	0.733826415031217	0	1.0	641.1464800003159	0.0			0	1.0	1.0	0.0	1.0	0	565	0	0	0	unknown
6	1	10	3	49940	6106	0.7338726888410747	1	1.0	679.7564290027367	0.0	107.0	295.0	1	1.0	0.0	1.0	2.0	0	566	0	0	0	unknown
6	1	10	4	43442	1126	0.7339190039783716	0	1.0	990.4419929989674	0.0			0	1.0	1.0	0.0	1.0	0	567	0	0	0	unknown
6	1	10	5	8692	7339	0.7339652765076607	0	1.0	853.9346249999653	0.0			0	1.0	1.0	0.0	1.0	0	568	0	0	0	unknown
6	1	10	6	47024	2913	0.7340115823317319	0	1.0	647.957386001508	0.0			0	1.0	1.0	0.0	1.0	0	569	0	0	0	unknown
6	1	10	7	19738	7572	0.734057871159166	0	1.0	802.8652600005444	0.0			0	1.0	1.0	0.0	1.0	0	570	0	0	0	unknown
6	1	10	8	39329	8516	0.7341041783802211	1	0.0	648.4087160024501	0.0	202.0		1	0.0	1.0	0.0	1.0	0	571	0	0	0	unknown
6	1	10	9	20193	6139	0.7341504575451835	0	1.0	580.3881710016867	0.0			0	1.0	1.0	0.0	1.0	0	572	0	0	0	unknown
6	1	10	10	2831	9261	0.7342430409044027	0	1.0	669.3712269989192	0.0			0	1.0	1.0	0.0	1.0	0	573	0	0	0	unknown
6	1	10	11	67784	8315	0.734289351501502	1	1.0	676.1682489996019	0.0	167.0	175.0	1	1.0	0.0	1.0	2.0	0	574	0	0	0	unknown
6	1	10	12	3627	14	0.7343356399796903	0	1.0	588.522116002423	0.0			0	1.0	1.0	0.0	1.0	0	575	1	0	1	new
6	1	10	13	21080	5660	0.7343819341622292	1	1.0	762.9765719975694	0.0	178.0		1	1.0	0.0	1.0	2.0	0	576	0	0	0	unknown
6	1	10	14	835	6692	0.7344282254343852	1	1.0	761.2771109997993	0.0	143.0	398.0	1	1.0	0.0	1.0	2.0	0	577	0	0	0	unknown
6	1	10	15	22172	4211	0.7344745201990008	0	1.0	947.9702739990897	0.0			0	1.0	1.0	0.0	1.0	0	578	0	0	0	unknown
6	1	10	16	68997	9571	0.7345208099577575	0	1.0	667.5070070014044	0.0			0	1.0	1.0	0.0	1.0	0	579	0	0	0	unknown
6	1	10	17	43666	9570	0.7345671163639053	0	1.0	849.3068339994352	0.0			0	1.0	1.0	0.0	1.0	0	580	0	0	0	unknown
6	1	10	18	67516	4400	0.7346133973915129	0	1.0	870.8333060021687	0.0			0	1.0	1.0	0.0	1.0	0	581	0	0	0	unknown
6	1	10	19	60641	8200	0.7346597061259672	0	1.0	754.1157409978042	0.0			0	1.0	1.0	0.0	1.0	0	582	0	0	0	unknown
6	1	10	20	54064	5345	0.7347059855237603	0	1.0	622.9683839992504	0.0			0	1.0	1.0	0.0	1.0	0	583	0	0	0	unknown
6	1	10	21	11915	4585	0.7347985797096043	0	1.0	851.9832279998809	0.0			0	1.0	1.0	0.0	1.0	0	584	0	0	0	unknown
6	1	10	22	8064	5081	0.7348448676057159	1	1.0	790.9444340002666	0.0	67.0	324.0	1	1.0	0.0	1.0	2.0	0	585	0	0	0	unknown
6	1	10	23	23232	7247	0.7348911581793799	0	1.0	887.6634819971515	0.0			0	1.0	1.0	0.0	1.0	0	586	0	0	0	unknown
6	1	10	24	16891	5960	0.7349374642362818	0	1.0	732.8447969994158	0.0			0	1.0	1.0	0.0	1.0	0	587	0	0	0	unknown
6	1	10	25	70767	6843	0.7349837552756071	1	1.0	1271.6428810017533	0.0	244.0	485.0	1	1.0	0.0	1.0	2.0	0	588	0	0	0	unknown
6	1	10	26	45912	2726	0.7350300477119162	0	1.0	761.8076289982126	0.0			0	1.0	1.0	0.0	1.0	0	589	0	0	0	unknown
6	1	10	27	66140	4285	0.7350763421272858	1	1.0	868.0386890009686	0.0	141.0	403.0	1	1.0	0.0	1.0	2.0	0	590	0	0	0	unknown
6	1	10	28	38067	7449	0.7351226360769942	0	1.0	516.8781350002973	0.0			0	1.0	1.0	0.0	1.0	0	591	0	0	0	unknown
6	1	10	29	41095	3909	0.7351688396884128	0	1.0	701.7155139983515	0.0			0	1.0	1.0	0.0	1.0	0	592	0	0	0	unknown
6	1	10	30	62074	6194	0.7352614228148013	0	1.0	602.1420000033686	0.0			0	1.0	1.0	0.0	1.0	0	593	0	0	0	unknown
6	1	10	31	51023	3376	0.7353077151346951	1	1.0	792.9484170017531	0.0	484.0		1	1.0	0.0	1.0	2.0	0	594	0	0	0	unknown
6	1	10	32	52482	3500	0.7353540117619559	0	1.0	681.6018849967804	0.0			0	1.0	1.0	0.0	1.0	0	595	0	0	0	unknown
6	1	10	33	71360	6752	0.735400304547511	0	1.0	732.3996579980302	0.0			0	1.0	1.0	0.0	1.0	0	596	0	0	0	unknown
6	1	10	34	69092	4739	0.7354465971002355	0	1.0	738.4188169999105	0.0			0	1.0	1.0	0.0	1.0	0	597	0	0	0	unknown
6	1	10	35	53136	3456	0.7354928888380527	0	1.0	750.2969430024676	0.0			0	1.0	1.0	0.0	1.0	0	598	0	0	0	unknown
6	1	10	36	19182	230	0.7355391858145593	1	1.0	651.4704879991768	0.0	89.0	164.0	1	1.0	0.0	1.0	2.0	0	599	1	0	3	easy
6	1	10	37	45596	616	0.7355854811612516	1	1.0	943.801617002464	0.0	253.0		1	1.0	0.0	1.0	2.0	0	600	1	1	2	easy
6	1	10	38	14529	173	0.7356317762751132	0	1.0	641.1363709994475	0.0			0	1.0	1.0	0.0	1.0	0	601	1	0	1	new
6	1	10	39	17619	2163	0.7356780704576522	0	1.0	675.285993002035	0.0			0	1.0	1.0	0.0	1.0	0	602	0	0	0	unknown
6	1	10	40	40137	9008	0.7357706578914076	0	1.0	743.2342000029166	0.0			0	1.0	1.0	0.0	1.0	0	603	0	0	0	unknown
6	1	10	41	31272	4465	0.7358169528888538	0	1.0	871.504555001593	0.0			0	1.0	1.0	0.0	1.0	0	604	0	0	0	unknown
6	1	10	42	62541	7198	0.7358632429968565	0	1.0	1031.1311069999647	0.0			0	1.0	1.0	0.0	1.0	0	605	0	0	0	unknown
6	1	10	43	26672	5817	0.7359095395077019	0	1.0	1002.3102830018616	0.0			0	1.0	1.0	0.0	1.0	0	606	0	0	0	unknown
6	1	10	44	12295	6148	0.7359558353200554	0	1.0	942.8252079997037	0.0			0	1.0	1.0	0.0	1.0	0	607	0	0	0	unknown
6	1	10	45	7263	4356	0.7360021289205178	0	1.0	838.2010320019617	0.0			0	1.0	1.0	0.0	1.0	0	608	0	0	0	unknown
6	1	10	46	47216	4186	0.7360484155360609	1	0.0	1189.6518879984797	0.0	494.0		1	0.0	1.0	0.0	1.0	0	609	0	0	0	unknown
6	1	10	47	25508	1703	0.7360947169363498	1	1.0	845.4143039998598	0.0	570.0		1	1.0	0.0	1.0	2.0	0	610	0	0	0	unknown
6	1	10	48	57978	9294	0.7361410058801993	0	1.0	1139.7820460006187	0.0			0	1.0	1.0	0.0	1.0	0	611	0	0	0	unknown
6	1	10	49	37467	6311	0.7361873059999197	1	1.0	642.5933799982886	0.0	133.0	256.0	1	1.0	0.0	1.0	2.0	0	612	0	0	0	unknown
6	1	10	50	59406	9492	0.7362336037913337	0	1.0	832.2046889988995	0.0			0	1.0	1.0	0.0	1.0	0	613	0	0	0	unknown
6	1	10	51	41606	8688	0.7362798936665058	0	1.0	703.6971699999413	0.0			0	1.0	1.0	0.0	1.0	0	614	0	0	0	unknown
6	1	10	52	24236	3319	0.7363724742317572	0	1.0	703.2612629991489	0.0			0	1.0	1.0	0.0	1.0	0	615	0	0	0	unknown
6	1	10	53	68645	1769	0.7364187714410945	0	1.0	655.5197289999342	0.0			0	1.0	1.0	0.0	1.0	0	616	0	0	0	unknown
6	1	10	54	51104	8140	0.7364649678347632	0	1.0	958.4095270001853	0.0			0	1.0	1.0	0.0	1.0	0	617	0	0	0	unknown
6	1	10	55	31062	7561	0.7365112669067457	0	1.0	604.338221000944	0.0			0	1.0	1.0	0.0	1.0	0	618	0	0	0	unknown
6	1	10	56	66034	2304	0.7365575585281476	0	1.0	690.9275029975106	0.0			0	1.0	1.0	0.0	1.0	0	619	0	0	0	unknown
6	1	10	57	64592	2481	0.7366038549225777	0	1.0	760.3099750012915	0.0			0	1.0	1.0	0.0	1.0	0	620	0	0	0	unknown
6	1	10	58	18384	2880	0.7366501411888748	1	1.0	691.5173849993153	0.0	402.0		1	1.0	0.0	1.0	2.0	0	621	0	0	0	unknown
6	1	10	59	39525	2186	0.7366964446846395	1	1.0	947.9078330004995	0.0	162.0		1	1.0	0.0	1.0	2.0	0	622	0	0	0	unknown
6	1	10	60	12637	2935	0.7367427385179325	0	1.0	802.3448980020476	0.0			0	1.0	1.0	0.0	1.0	0	623	0	0	0	unknown
6	1	10	61	46887	5193	0.7367890272289515	0	1.0	709.20744400064	0.0			0	1.0	1.0	0.0	1.0	0	624	0	0	0	unknown
6	1	10	62	9918	116	0.7368353228084743	1	1.0	1016.5191879968916	0.0	267.0		1	1.0	0.0	1.0	2.0	0	625	1	0	2	easy
6	1	11	1	11378	9647	0.7384004248306155	0	1.0	849.0575739997438	0.0			0	1.0	1.0	0.0	1.0	0	626	0	0	0	unknown
6	1	11	2	53720	1791	0.7384467272786422	0	1.0	761.1970670004665	0.0			0	1.0	1.0	0.0	1.0	0	627	0	0	0	unknown
6	1	11	3	15324	1407	0.7384930287953466	0	1.0	642.9049670005043	0.0			0	1.0	1.0	0.0	1.0	0	628	0	0	0	unknown
6	1	11	4	56043	770	0.7385393287986516	0	1.0	1003.0481559988402	0.0			0	1.0	1.0	0.0	1.0	0	629	1	0	1	new
6	1	11	5	56848	2830	0.7385856206528842	0	1.0	833.9968100008263	0.0			0	1.0	1.0	0.0	1.0	0	630	0	0	0	unknown
6	1	11	6	6315	2129	0.7386319206561893	0	1.0	740.260426999157	0.0			0	1.0	1.0	0.0	1.0	0	631	0	0	0	unknown
6	1	11	7	29327	2579	0.7386782014509662	0	1.0	662.2633539991511	0.0			0	1.0	1.0	0.0	1.0	0	632	0	0	0	unknown
6	1	11	8	37993	3014	0.738724518683739	1	1.0	836.8041569992782	0.0	444.0	540.0	1	1.0	0.0	1.0	2.0	0	633	0	0	0	unknown
6	1	11	9	34239	459	0.7387707910966128	0	1.0	1022.6372759971129	0.0			0	1.0	1.0	0.0	1.0	0	634	1	0	1	new
6	1	11	10	16202	2642	0.7388171042548493	0	1.0	1379.2286470015824	0.0			0	1.0	1.0	0.0	1.0	0	635	0	0	0	unknown
6	1	11	11	23111	8996	0.73886338644661	0	1.0	768.6080839994246	0.0			0	1.0	1.0	0.0	1.0	0	636	0	0	0	unknown
6	1	11	12	56770	5745	0.7389096703846006	1	1.0	803.3004469980369	0.0	114.0		1	1.0	0.0	1.0	2.0	0	637	0	0	0	unknown
6	1	11	13	31954	3410	0.7390022971667349	0	1.0	719.6015570007148	0.0			0	1.0	1.0	0.0	1.0	0	638	0	0	0	unknown
6	1	11	14	916	8116	0.7390485593350604	0	0.0	1774.6689870000407	0.0			0	0.0	0.0	1.0	2.0	0	639	0	0	0	unknown
6	1	11	15	72538	5733	0.7390948925167322	1	0.0	748.3394760020019	0.0	114.0		1	0.0	1.0	0.0	1.0	0	640	0	0	0	unknown
6	1	11	16	39770	3951	0.7391411454882472	1	1.0	857.4136859970166	0.0	100.0	392.0	1	1.0	0.0	1.0	2.0	0	641	0	0	0	unknown
6	1	11	17	3922	1482	0.7391874877503141	0	1.0	833.062058998621	0.0			0	1.0	1.0	0.0	1.0	0	642	0	0	0	unknown
6	1	11	18	1708	4599	0.7392337307101114	0	1.0	1104.04456499964	0.0			0	1.0	1.0	0.0	1.0	0	643	0	0	0	unknown
6	1	11	19	14610	4040	0.739280087640509	0	1.0	609.3235869993805	0.0			0	1.0	1.0	0.0	1.0	0	644	0	0	0	unknown
6	1	11	20	1662	4982	0.7393263254780322	0	1.0	622.3643580015049	0.0			0	1.0	1.0	0.0	1.0	0	645	0	0	0	unknown
6	1	11	21	10694	8474	0.7393726814771071	0	1.0	783.2228139996004	0.0			0	1.0	1.0	0.0	1.0	0	646	0	0	0	unknown
6	1	11	22	38468	9657	0.7394189153565093	1	1.0	860.8362150007451	0.0	321.0		1	1.0	0.0	1.0	2.0	0	647	0	0	0	unknown
6	1	11	23	42859	6168	0.7395114956889302	0	1.0	937.1185310010333	0.0			0	1.0	1.0	0.0	1.0	0	648	0	0	0	unknown
6	1	11	24	53439	6537	0.7395578724099323	0	1.0	797.8739329992094	0.0			0	1.0	1.0	0.0	1.0	0	649	0	0	0	unknown
6	1	11	25	37614	4759	0.7396040892926976	0	1.0	840.8999599996606	0.0			0	1.0	1.0	0.0	1.0	0	650	0	0	0	unknown
6	1	11	26	52032	5514	0.7396504724165424	1	1.0	1145.5203040022752	0.0	171.0		1	1.0	0.0	1.0	2.0	0	651	0	0	0	unknown
6	1	11	27	9357	4620	0.7396966781234368	0	1.0	1109.1225330019367	0.0			0	1.0	1.0	0.0	1.0	0	652	0	0	0	unknown
6	1	11	28	15200	7333	0.7397430551936849	0	1.0	622.4670720002905	0.0			0	1.0	1.0	0.0	1.0	0	653	0	0	0	unknown
6	1	11	29	25725	1069	0.7397892684675753	0	1.0	639.230425000278	0.0			0	1.0	1.0	0.0	1.0	0	654	0	0	0	unknown
6	1	11	30	36398	1218	0.7398356517078354	0	1.0	993.8053730002138	0.0			0	1.0	1.0	0.0	1.0	0	655	0	0	0	unknown
6	1	11	31	55671	1512	0.7398818542715162	0	1.0	926.0442380000312	0.0			0	1.0	1.0	0.0	1.0	0	656	0	0	0	unknown
6	1	11	32	1708	4599	0.7399282542755827	1	1.0	760.9480059982161	0.0	13.0		1	1.0	0.0	1.0	2.0	0	657	0	0	0	unknown
6	1	11	33	69848	1040	0.7399744390277191	0	1.0	681.1239720009326	0.0			0	1.0	1.0	0.0	1.0	0	658	0	0	0	unknown
6	1	11	34	64965	1624	0.7400208513718098	1	1.0	831.9657699976234	0.0	139.0		1	1.0	0.0	1.0	2.0	0	659	0	0	0	unknown
6	1	11	35	53013	1808	0.7401134481187909	1	0.0	691.0157150014129	0.0	333.0		1	0.0	1.0	0.0	1.0	0	660	0	0	0	unknown
6	1	11	36	58604	4690	0.7401595254195854	0	1.0	663.4923599995091	0.0			0	1.0	1.0	0.0	1.0	0	661	0	0	0	unknown
6	1	11	37	71117	5019	0.7402058268198743	0	1.0	901.6023149997635	0.0			0	1.0	1.0	0.0	1.0	0	662	0	0	0	unknown
6	1	11	38	55576	5219	0.7402521040057763	0	1.0	626.7657870012044	0.0			0	1.0	1.0	0.0	1.0	0	663	0	0	0	unknown
6	1	11	39	31384	9102	0.7402984040090814	0	1.0	583.5859399994661	0.0			0	1.0	1.0	0.0	1.0	0	664	0	0	0	unknown
6	1	11	40	40923	9621	0.7403446942334994	1	1.0	738.1721509991621	0.0	547.0		1	1.0	0.0	1.0	2.0	0	665	0	0	0	unknown
6	1	11	41	21513	5874	0.7403909862041473	0	1.0	1080.9621679982229	0.0			0	1.0	1.0	0.0	1.0	0	666	0	0	0	unknown
6	1	11	42	14122	169	0.7404372824821621	0	1.0	1462.7300169995578	0.0			0	1.0	1.0	0.0	1.0	0	667	1	0	1	new
6	1	11	43	604	9088	0.740483580622822	1	1.0	1024.6226849994855	1.0	122.0		1	1.0	1.0	1.0	2.0	0	668	0	0	0	unknown
6	1	11	44	46204	4637	0.7405761693371459	0	1.0	691.0388020005485	0.0			0	1.0	1.0	0.0	1.0	0	669	0	0	0	unknown
6	1	11	45	62916	4522	0.7406224691076204	0	1.0	667.3648159994627	0.0			0	1.0	1.0	0.0	1.0	0	670	0	0	0	unknown
6	1	11	46	60912	7224	0.7406687532784417	0	1.0	621.660526998312	0.0			0	1.0	1.0	0.0	1.0	0	671	0	0	0	unknown
6	1	11	47	10448	3822	0.7407150453655049	0	1.0	609.9497229988629	0.0			0	1.0	1.0	0.0	1.0	0	672	0	0	0	unknown
6	1	11	48	47523	6407	0.7407613429240882	0	1.0	702.8682680029306	0.0			0	1.0	1.0	0.0	1.0	0	673	0	0	0	unknown
6	1	11	49	26277	8393	0.7408076346619054	0	1.0	714.5730859992909	0.0			0	1.0	1.0	0.0	1.0	0	674	0	0	0	unknown
6	1	11	50	916	8116	0.7408539314055815	1	1.0	650.4604500005371	0.0	35.0		1	1.0	0.0	1.0	2.0	0	675	0	0	0	unknown
6	1	11	51	64301	2044	0.7409002321073785	0	0.0	970.3782379983747	0.0			0	0.0	0.0	1.0	2.0	0	676	0	0	0	unknown
6	1	11	52	42445	3862	0.7409465202363207	1	1.0	964.0829130003112	0.0	247.0		1	1.0	0.0	1.0	2.0	0	677	0	0	0	unknown
6	1	11	53	43022	8019	0.7409928167471662	0	1.0	702.3339869992924	0.0			0	1.0	1.0	0.0	1.0	0	678	0	0	0	unknown
6	1	11	54	15324	1407	0.7410854063928127	1	1.0	980.634352999914	0.0	50.0		1	1.0	0.0	1.0	2.0	0	679	0	0	0	unknown
6	1	11	55	71986	7367	0.7411316999932751	1	1.0	802.5415539996175	0.0	589.0		1	1.0	0.0	1.0	2.0	0	680	0	0	0	unknown
6	1	11	56	40034	8706	0.7411779902176932	0	1.0	742.9580479983997	0.0			0	1.0	1.0	0.0	1.0	0	681	0	0	0	unknown
6	1	11	57	20595	2753	0.7412242899881675	0	1.0	738.0375419998018	0.0			0	1.0	1.0	0.0	1.0	0	682	0	0	0	unknown
6	1	11	58	27102	3802	0.7412705835886298	0	1.0	815.5558190010197	0.0			0	1.0	1.0	0.0	1.0	0	683	0	0	0	unknown
6	1	11	59	38468	9657	0.7413168792845681	1	1.0	656.0581830017327	0.0	36.0	358.0	1	1.0	0.0	1.0	2.0	0	684	0	0	0	unknown
6	1	11	60	59968	5714	0.7413631778908893	1	1.0	810.6216060004954	0.0	191.0	390.0	1	1.0	0.0	1.0	2.0	0	685	0	0	0	unknown
6	1	11	61	26352	347	0.7414094639243558	0	1.0	870.173816998431	0.0			0	1.0	1.0	0.0	1.0	0	686	1	0	1	new
6	1	11	62	62916	4522	0.7414557615993544	1	1.0	694.9808370009123	0.0	16.0		1	1.0	0.0	1.0	2.0	0	687	0	0	0	unknown
6	1	11	63	608	5102	0.7415019582258537	0	1.0	802.1791689970995	0.0			0	1.0	1.0	0.0	1.0	0	688	0	0	0	unknown
6	1	12	1	11204	1122	0.7432170452084392	0	1.0	851.542314998369	0.0			0	1.0	1.0	0.0	1.0	0	689	0	0	0	unknown
6	1	12	2	4787	36	0.7432633463758975	1	0.0	870.8998229994904	0.0	286.0		1	0.0	1.0	0.0	1.0	0	690	1	0	2	easy
6	1	12	3	61985	5273	0.7433096345048397	0	1.0	585.0950339990959	0.0			0	1.0	1.0	0.0	1.0	0	691	0	0	0	unknown
6	1	12	4	32797	9335	0.7433559370692819	1	1.0	1488.6226509988771	1.0	269.0		1	1.0	1.0	1.0	2.0	0	692	0	0	0	unknown
6	1	12	5	31954	3410	0.74340222007595	1	1.0	729.6250580002379	0.0	54.0		1	1.0	0.0	1.0	2.0	0	693	0	0	0	unknown
6	1	12	6	67538	5670	0.7434485242702066	0	1.0	625.3190329989593	0.0			0	1.0	1.0	0.0	1.0	0	694	0	0	0	unknown
6	1	12	7	5023	5449	0.7434948099544271	0	1.0	727.8907610016176	0.0			0	1.0	1.0	0.0	1.0	0	695	0	0	0	unknown
6	1	12	8	10349	4580	0.7435411092592403	0	1.0	649.4920250006544	0.0			0	1.0	1.0	0.0	1.0	0	696	0	0	0	unknown
6	1	12	9	5799	1994	0.7435874016955494	0	1.0	720.6359710035031	0.0			0	1.0	1.0	0.0	1.0	0	697	0	0	0	unknown
6	1	12	10	40758	1386	0.7436337057733908	0	1.0	646.0752569983015	0.0			0	1.0	1.0	0.0	1.0	0	698	0	0	0	unknown
6	1	12	11	48780	9828	0.743679986335337	0	1.0	631.311196997558	0.0			0	1.0	1.0	0.0	1.0	0	699	0	0	0	unknown
6	1	12	12	41444	9484	0.743726292042993	1	0.0	611.6170229979616	0.0	371.0		1	0.0	1.0	0.0	1.0	0	700	0	0	0	unknown
6	1	12	13	53683	1490	0.7437725722556933	0	1.0	943.0618939986743	0.0			0	1.0	1.0	0.0	1.0	0	701	0	0	0	unknown
6	1	12	14	11160	131	0.7438651561969891	0	1.0	731.9454390017198	0.0			0	1.0	1.0	0.0	1.0	0	702	1	0	1	new
6	1	12	15	10654	5518	0.7439114541048184	0	1.0	633.4712099996977	0.0			0	1.0	1.0	0.0	1.0	0	703	0	0	0	unknown
6	1	12	16	18323	1103	0.7439576586475595	0	1.0	682.9224200009776	0.0			0	1.0	1.0	0.0	1.0	0	704	0	0	0	unknown
6	1	12	17	43192	5354	0.7440039523644372	0	1.0	663.5223789999145	0.0			0	1.0	1.0	0.0	1.0	0	705	0	0	0	unknown
6	1	12	18	67686	8405	0.7440502430545166	0	1.0	685.9419510001317	0.0			0	1.0	1.0	0.0	1.0	0	706	0	0	0	unknown
6	1	12	19	2609	4272	0.7440965374698862	0	1.0	807.0548169998801	0.0			0	1.0	1.0	0.0	1.0	0	707	0	0	0	unknown
6	1	12	20	71136	9513	0.7441428332822397	0	1.0	735.8183709984587	0.0			0	1.0	1.0	0.0	1.0	0	708	0	0	0	unknown
6	1	12	21	13879	7408	0.7441891187336295	0	1.0	788.7646050003242	0.0			0	1.0	1.0	0.0	1.0	0	709	0	0	0	unknown
6	1	12	22	47024	2913	0.7442354199010878	1	0.0	1078.2504999988305	0.0	140.0		1	0.0	1.0	0.0	1.0	0	710	0	0	0	unknown
6	1	12	23	70817	1834	0.7442817139672115	0	1.0	587.0108169983723	0.0			0	1.0	1.0	0.0	1.0	0	711	0	0	0	unknown
6	1	12	24	64488	7141	0.7443742997711524	0	1.0	701.8173229989769	0.0			0	1.0	1.0	0.0	1.0	0	712	0	0	0	unknown
6	1	12	25	57224	1784	0.7444205954670906	0	1.0	589.0710999992734	0.0			0	1.0	1.0	0.0	1.0	0	713	0	0	0	unknown
6	1	12	26	14920	3880	0.7444668825482949	0	1.0	685.6722189986613	0.0			0	1.0	1.0	0.0	1.0	0	714	0	0	0	unknown
6	1	12	27	15324	1407	0.7445131798740476	1	1.0	728.8653830000839	0.0	35.0	86.0	1	1.0	0.0	1.0	2.0	0	715	0	0	0	unknown
6	1	12	28	12324	5778	0.7445594791788607	0	1.0	637.50797800094	0.0			0	1.0	1.0	0.0	1.0	0	716	0	0	0	unknown
6	1	12	29	32246	5306	0.7446057731285691	0	1.0	653.3876459980092	0.0			0	1.0	1.0	0.0	1.0	0	717	0	0	0	unknown
6	1	12	30	20954	6677	0.7446520641678944	0	1.0	701.922246000322	0.0			0	1.0	1.0	0.0	1.0	0	718	0	0	0	unknown
6	1	12	31	47884	6378	0.7446983573026955	0	1.0	606.1081210027623	0.0			0	1.0	1.0	0.0	1.0	0	719	0	0	0	unknown
6	1	12	32	29914	2451	0.7447446554433554	1	1.0	1089.549389998865	1.0	305.0		1	1.0	1.0	1.0	2.0	0	720	0	0	0	unknown
6	1	12	33	10448	3822	0.7447909496258944	1	1.0	775.5037400020227	0.0	48.0		1	1.0	0.0	1.0	2.0	0	721	0	0	0	unknown
6	1	12	34	69069	5870	0.7448835297254845	0	1.0	757.5982580019626	0.0			0	1.0	1.0	0.0	1.0	0	722	0	0	0	unknown
6	1	12	35	52892	2567	0.7449298332212492	0	1.0	745.8464070004993	0.0			0	1.0	1.0	0.0	1.0	0	723	0	0	0	unknown
6	1	12	36	40992	1446	0.7449761249590665	0	1.0	621.2308079993818	0.0			0	1.0	1.0	0.0	1.0	0	724	0	0	0	unknown
6	1	12	37	14529	173	0.7450224201893433	1	1.0	759.8082990007241	0.0	123.0		1	1.0	0.0	1.0	2.0	0	725	1	0	2	easy
6	1	12	38	14701	5360	0.7450687157688662	0	1.0	731.5784060010627	0.0			0	1.0	1.0	0.0	1.0	0	726	0	0	0	unknown
6	1	12	39	42859	6168	0.7451150086708366	1	1.0	846.0121240022999	0.0	78.0		1	1.0	0.0	1.0	2.0	0	727	0	0	0	unknown
6	1	12	40	1708	4599	0.7451613035518676	1	1.0	665.0501180010906	0.0	70.0	84.0	1	1.0	0.0	1.0	2.0	0	728	0	0	0	unknown
6	1	12	41	18089	4614	0.7452075923793017	0	1.0	710.559071998432	0.0			0	1.0	1.0	0.0	1.0	0	729	0	0	0	unknown
6	1	12	42	54974	8417	0.7452537952922283	0	1.0	750.1956090018211	0.0			0	1.0	1.0	0.0	1.0	0	730	0	0	0	unknown
6	1	12	43	51229	2034	0.7453463793499395	0	1.0	702.5495340021736	0.0			0	1.0	1.0	0.0	1.0	0	731	0	0	0	unknown
6	1	12	44	29838	398	0.7453926752787083	0	1.0	556.7869650003558	0.0			0	1.0	1.0	0.0	1.0	0	732	1	0	1	new
6	1	12	45	67769	8629	0.7454389716731384	0	1.0	572.365168001852	0.0			0	1.0	1.0	0.0	1.0	0	733	0	0	0	unknown
6	1	12	46	65595	1411	0.7454852578230202	0	1.0	465.03669700177846	0.0			0	1.0	1.0	0.0	1.0	0	734	0	0	0	unknown
6	1	12	47	67146	2152	0.7455315637635067	0	1.0	562.2297539994179	0.0			0	1.0	1.0	0.0	1.0	0	735	0	0	0	unknown
6	1	12	48	60510	6858	0.7455778458388522	0	1.0	633.661685998959	0.0			0	1.0	1.0	0.0	1.0	0	736	0	0	0	unknown
6	1	12	49	24786	9391	0.7456241481704637	0	1.0	717.1782439982053	0.0			0	1.0	1.0	0.0	1.0	0	737	0	0	0	unknown
6	1	12	50	43192	5354	0.745670445379801	1	1.0	702.949948998139	0.0	32.0		1	1.0	0.0	1.0	2.0	0	738	0	0	0	unknown
6	1	12	51	58145	805	0.7457167293177916	1	1.0	1061.2558469983924	1.0	240.0		1	1.0	1.0	1.0	2.0	0	739	1	0	2	easy
6	1	12	52	70354	4665	0.7458093186141923	0	1.0	929.471041999932	0.0			0	1.0	1.0	0.0	1.0	0	740	0	0	0	unknown
6	1	12	53	31062	7561	0.745855618850328	1	1.0	871.1613529994792	0.0	122.0		1	1.0	0.0	1.0	2.0	0	741	0	0	0	unknown
6	1	12	54	72861	8160	0.7459019084926694	0	1.0	1021.4382789999944	0.0			0	1.0	1.0	0.0	1.0	0	742	0	0	0	unknown
6	1	12	55	12605	2161	0.7459482088452205	0	1.0	627.2804030013504	0.0			0	1.0	1.0	0.0	1.0	0	743	0	0	0	unknown
6	1	12	56	40670	7903	0.7459944972069934	0	1.0	749.911349001195	0.0			0	1.0	1.0	0.0	1.0	0	744	0	0	0	unknown
6	1	12	57	51253	7560	0.7460407961625605	0	1.0	842.5574819993926	0.0			0	1.0	1.0	0.0	1.0	0	745	0	0	0	unknown
6	1	12	58	54536	2370	0.7460870835930109	0	1.0	655.1133440007105	0.0			0	1.0	1.0	0.0	1.0	0	746	0	0	0	unknown
6	1	12	59	72518	2563	0.7461333876708522	0	1.0	578.1583749994752	0.0			0	1.0	1.0	0.0	1.0	0	747	0	0	0	unknown
6	1	12	60	48682	670	0.7461796784773468	0	1.0	624.0244869986782	0.0			0	1.0	1.0	0.0	1.0	0	748	1	0	1	new
6	1	12	61	51180	9409	0.7462259725434705	0	1.0	541.7451789980987	0.0			0	1.0	1.0	0.0	1.0	0	749	0	0	0	unknown
6	1	12	62	11883	9681	0.7462722624186426	0	1.0	748.7076340003114	0.0			0	1.0	1.0	0.0	1.0	0	750	0	0	0	unknown
6	2	1	1	70152	8819	7.681178163387811	0	1.0	617.8756149893161	0.0			0	1.0	1.0	0.0	1.0	0	751	0	0	0	unknown
6	2	1	2	71523	2972	7.681224506814032	0	1.0	777.1485399862285	0.0			0	1.0	1.0	0.0	1.0	0	752	0	0	0	unknown
6	2	1	3	14595	175	7.681270751985721	0	1.0	526.4278249815105	0.0			0	1.0	1.0	0.0	1.0	0	753	1	0	1	new
6	2	1	4	50493	6169	7.681317097740246	1	0.0	641.2377170054242	0.0	219.0		0	1.0	1.0	0.0	1.0	0	754	0	0	0	unknown
6	2	1	5	10452	1591	7.6813633320853105	0	0.0	2148.2489619811527	1.0			0	0.0	1.0	1.0	2.0	0	755	0	0	0	unknown
6	2	1	6	11979	4692	7.681409697281197	0	1.0	771.1404830042737	0.0			0	1.0	1.0	0.0	1.0	0	756	0	0	0	unknown
6	2	1	7	60890	4152	7.681455929297956	0	1.0	712.6923119940329	0.0			0	1.0	1.0	0.0	1.0	0	757	0	0	0	unknown
6	2	1	8	65558	7167	7.68150229298044	0	1.0	775.3049280145204	0.0			0	1.0	1.0	0.0	1.0	0	758	0	0	0	unknown
6	2	1	9	31272	4465	7.681548516149632	1	0.0	679.6907529933378	0.0	154.0		0	1.0	1.0	0.0	1.0	0	759	0	0	0	unknown
6	2	1	10	59997	5313	7.681594823836351	0	1.0	717.9334810061846	0.0			0	1.0	1.0	0.0	1.0	0	760	0	0	0	unknown
6	2	1	11	24481	305	7.681641104165464	0	1.0	1191.2394760001916	0.0			0	1.0	1.0	0.0	1.0	0	761	1	0	1	new
6	2	1	12	50703	9575	7.681687405332923	1	0.0	987.3478829977103	0.0	346.0		0	1.0	1.0	0.0	1.0	0	762	0	0	0	unknown
6	2	1	13	36975	487	7.681733693461865	0	1.0	710.1749409921467	0.0			0	1.0	1.0	0.0	1.0	0	763	1	1	1	new
6	2	1	14	18206	3997	7.681779997539706	0	1.0	825.3838439995887	0.0			0	1.0	1.0	0.0	1.0	0	764	0	0	0	unknown
6	2	1	15	35982	7390	7.681872579152694	1	0.0	854.967947001569	0.0	233.0		0	1.0	1.0	0.0	1.0	0	765	0	0	0	unknown
6	2	1	16	46419	1277	7.681918869609944	0	1.0	618.787777988473	0.0			0	1.0	1.0	0.0	1.0	0	766	0	0	0	unknown
6	2	1	17	54549	2195	7.681965169380419	0	1.0	839.362050028285	0.0			0	1.0	1.0	0.0	1.0	0	767	0	0	0	unknown
6	2	1	18	38251	5101	7.68201145355124	0	1.0	945.6435079919174	0.0			0	1.0	1.0	0.0	1.0	0	768	0	0	0	unknown
6	2	1	19	10942	1826	7.682057755999267	0	1.0	863.4441210015211	0.0			0	1.0	1.0	0.0	1.0	0	769	0	0	0	unknown
6	2	1	20	10452	1591	7.682104038191029	1	1.0	743.8069850031752	0.0	14.0		1	1.0	0.0	1.0	2.0	0	770	0	0	0	unknown
6	2	1	21	55132	2080	7.682150348555296	0	1.0	1263.3621599816252	0.0			0	1.0	1.0	0.0	1.0	0	771	0	0	0	unknown
6	2	1	22	42383	3804	7.682196626788936	0	1.0	695.0725059723482	0.0			0	1.0	1.0	0.0	1.0	0	772	0	0	0	unknown
6	2	1	23	57327	2773	7.682242830749602	0	1.0	673.1197110202629	0.0			0	1.0	1.0	0.0	1.0	0	773	0	0	0	unknown
6	2	1	24	54064	5345	7.682335411198437	1	0.0	814.8429820139426	0.0	190.0		0	1.0	1.0	0.0	1.0	0	774	0	0	0	unknown
6	2	1	25	55433	7130	7.682381712133066	1	0.0	770.4719619941898	0.0	336.0	497.0	0	1.0	1.0	0.0	1.0	0	775	0	0	0	unknown
6	2	1	26	45962	3770	7.682427998282946	1	0.0	909.2226909997408	0.0	646.0		0	1.0	1.0	0.0	1.0	0	776	0	0	0	unknown
6	2	1	27	40758	1386	7.682474303757773	1	0.0	853.9489059767219	0.0	78.0		0	1.0	1.0	0.0	1.0	0	777	0	0	0	unknown
6	2	1	28	66511	9317	7.682520588627085	0	1.0	720.3139810007997	0.0			0	1.0	1.0	0.0	1.0	0	778	0	0	0	unknown
6	2	1	29	67631	8105	7.682566882693208	0	1.0	1108.9420949865598	0.0			0	1.0	1.0	0.0	1.0	0	779	0	0	0	unknown
6	2	1	30	7153	8280	7.682613180251792	1	0.0	983.618906000629	0.0	413.0		0	1.0	1.0	0.0	1.0	0	780	0	0	0	unknown
6	2	1	31	36911	485	7.682659467449411	0	1.0	703.5060860216618	0.0			0	1.0	1.0	0.0	1.0	0	781	1	0	1	new
6	2	1	32	16703	200	7.682705762912518	0	1.0	848.1311360083055	0.0			0	1.0	1.0	0.0	1.0	0	782	1	0	1	new
6	2	1	33	43500	9130	7.6827520651277155	0	1.0	1020.3379119921008	0.0			0	1.0	1.0	0.0	1.0	0	783	0	0	0	unknown
6	2	1	34	28463	2587	7.682798349997027	0	1.0	844.4481030164752	0.0			0	1.0	1.0	0.0	1.0	0	784	0	0	0	unknown
6	2	1	35	21817	2904	7.682844645227306	0	1.0	903.6424900114071	0.0			0	1.0	1.0	0.0	1.0	0	785	0	0	0	unknown
6	2	1	36	29517	4239	7.682937233010307	0	1.0	1061.4621469867416	0.0			0	1.0	1.0	0.0	1.0	0	786	0	0	0	unknown
6	2	1	37	8944	8001	7.682983534876257	0	1.0	771.3278429873753	0.0			0	1.0	1.0	0.0	1.0	0	787	0	0	0	unknown
6	2	1	38	2435	3312	7.683029823470861	0	0.0	2003.4803200105673	1.0			0	0.0	1.0	1.0	2.0	0	788	0	0	0	unknown
6	2	1	39	45919	6903	7.683076120913027	0	1.0	1254.4391870032996	0.0			0	1.0	1.0	0.0	1.0	0	789	0	0	0	unknown
6	2	1	40	59997	5313	7.683122412185184	1	1.0	817.8519899956882	0.0	29.0		1	1.0	0.0	1.0	2.0	0	790	0	0	0	unknown
6	2	1	41	12221	5567	7.683168710907921	0	1.0	829.8570619954262	0.0			0	1.0	1.0	0.0	1.0	0	791	0	0	0	unknown
6	2	1	42	56624	9012	7.683214999036863	0	1.0	792.0683330157772	0.0			0	1.0	1.0	0.0	1.0	0	792	0	0	0	unknown
6	2	1	43	49937	5208	7.683261295082047	0	1.0	627.9306540091056	0.0			0	1.0	1.0	0.0	1.0	0	793	0	0	0	unknown
6	2	1	44	26600	3475	7.683307585655711	0	1.0	702.2387599863578	0.0			0	1.0	1.0	0.0	1.0	0	794	0	0	0	unknown
6	2	1	45	72293	2336	7.683353887172416	1	0.0	1528.2225559931248	0.0	366.0	433.0	0	1.0	1.0	0.0	1.0	0	795	0	0	0	unknown
6	2	1	46	40137	9008	7.683446476585231	1	0.0	1172.212657984346	0.0	192.0		0	1.0	1.0	0.0	1.0	0	796	0	0	0	unknown
6	2	1	47	45992	7974	7.683492670301349	1	1.0	870.9763970109634	0.0	333.0	539.0	0	0.0	0.0	1.0	2.0	0	797	0	0	0	unknown
6	2	1	48	22414	8441	7.683538966579362	1	0.0	731.1244219890796	0.0	582.0		0	1.0	1.0	0.0	1.0	0	798	0	0	0	unknown
6	2	1	49	5603	53	7.68358525482472	1	0.0	718.469981016824	0.0	565.0		0	1.0	1.0	0.0	1.0	0	799	1	0	2	hard
6	2	1	50	3627	14	7.6836315566906705	1	0.0	1183.0739319848362	0.0	224.0		0	1.0	1.0	0.0	1.0	0	800	1	0	2	hard
6	2	1	51	63181	2255	7.683677849243395	1	0.0	682.9906669736374	0.0	256.0		0	1.0	1.0	0.0	1.0	0	801	0	0	0	unknown
6	2	1	52	5159	4096	7.6837241468019775	0	1.0	936.1796560115182	0.0			0	1.0	1.0	0.0	1.0	0	802	0	0	0	unknown
6	2	1	53	61749	848	7.6837704301578915	0	1.0	686.0303060093429	0.0			0	1.0	1.0	0.0	1.0	0	803	1	0	1	new
6	2	1	54	48752	4139	7.683816732605918	0	1.0	673.1382319994736	0.0			0	1.0	1.0	0.0	1.0	0	804	0	0	0	unknown
6	2	1	55	41431	9969	7.683909313287587	0	1.0	804.489572008606	0.0			0	1.0	1.0	0.0	1.0	0	805	0	0	0	unknown
6	2	1	56	3445	5604	7.683955616084858	0	1.0	802.3566539923194	0.0			0	1.0	1.0	0.0	1.0	0	806	0	0	0	unknown
6	2	1	57	11747	5629	7.684001908870413	0	1.0	688.1084860069677	0.0			0	1.0	1.0	0.0	1.0	0	807	0	0	0	unknown
6	2	1	58	17570	5555	7.684048198047094	0	1.0	813.1907969946042	0.0			0	1.0	1.0	0.0	1.0	0	808	0	0	0	unknown
6	2	1	59	8007	86	7.684094495489262	0	1.0	887.9410619847475	0.0			0	1.0	1.0	0.0	1.0	0	809	1	0	1	new
6	2	1	60	69140	7292	7.684140791767277	0	1.0	665.3873840114102	0.0			0	1.0	1.0	0.0	1.0	0	810	0	0	0	unknown
6	2	1	61	51902	2391	7.684187088161707	0	1.0	1102.099368989002	0.0			0	1.0	1.0	0.0	1.0	0	811	0	0	0	unknown
6	2	1	62	34626	1282	7.68423337524291	0	1.0	854.4229440158233	0.0			0	1.0	1.0	0.0	1.0	0	812	0	0	0	unknown
6	2	1	63	67146	2152	7.684279670822433	1	1.0	1305.9433590096887	0.0	77.0		0	0.0	0.0	1.0	2.0	0	813	0	0	0	unknown
6	2	2	1	20294	7785	7.6857991717988625	0	1.0	853.1668310170061	0.0			0	1.0	1.0	0.0	1.0	0	814	0	0	0	unknown
6	2	2	2	5358	4946	7.68584547494538	0	1.0	613.4866139909718	0.0			0	1.0	1.0	0.0	1.0	0	815	0	0	0	unknown
6	2	2	3	8695	6483	7.685891756322234	0	1.0	773.6948990204837	0.0			0	1.0	1.0	0.0	1.0	0	816	0	0	0	unknown
6	2	2	4	69856	1436	7.685938067268579	0	1.0	616.4380609989166	0.0			0	1.0	1.0	0.0	1.0	0	817	0	0	0	unknown
6	2	2	5	57405	6808	7.685984258190728	0	1.0	601.5142730029766	0.0			0	1.0	1.0	0.0	1.0	0	818	0	0	0	unknown
6	2	2	6	12863	6129	7.686030540498906	0	1.0	616.607391013531	0.0			0	1.0	1.0	0.0	1.0	0	819	0	0	0	unknown
6	2	2	7	24461	3625	7.686076844460331	0	0.0	2064.141323993681	1.0			0	0.0	1.0	1.0	2.0	0	820	0	0	0	unknown
6	2	2	8	53428	4127	7.686123129795305	0	1.0	552.9075289960019	0.0			0	1.0	1.0	0.0	1.0	0	821	0	0	0	unknown
6	2	2	9	4787	36	7.686169425724073	1	1.0	4089.5545489911456	1.0	131.0	418.0	0	0.0	1.0	1.0	2.0	0	822	1	0	3	hard
6	2	2	10	24461	3625	7.6862157185096285	1	1.0	1102.6922060118522	1.0	2.0		1	1.0	1.0	1.0	2.0	0	823	0	0	0	unknown
6	2	2	11	42826	8509	7.686308317468501	0	1.0	701.8973100057337	0.0			0	1.0	1.0	0.0	1.0	0	824	0	0	0	unknown
6	2	2	12	5260	7629	7.68635460047517	0	1.0	1054.5420100097544	0.0			0	1.0	1.0	0.0	1.0	0	825	0	0	0	unknown
6	2	2	13	36398	1218	7.686400894657709	1	0.0	903.0116249923593	0.0	170.0		0	1.0	1.0	0.0	1.0	0	826	0	0	0	unknown
6	2	2	14	6132	6410	7.686447192681953	1	0.0	837.0063019974624	0.0	267.0		0	1.0	1.0	0.0	1.0	0	827	0	0	0	unknown
6	2	2	15	13139	159	7.686493489309214	0	1.0	902.5633410201409	0.0			0	1.0	1.0	0.0	1.0	0	828	1	1	1	new
6	2	2	16	36911	485	7.68653977708891	1	1.0	784.0109090029727	0.0	47.0		1	1.0	0.0	1.0	2.0	0	829	1	0	2	easy
6	2	2	17	51916	3127	7.686586071038618	0	1.0	852.3297620122322	0.0			0	1.0	1.0	0.0	1.0	0	830	0	0	0	unknown
6	2	2	18	35341	9744	7.686632374068721	0	1.0	807.7789150120224	0.0			0	1.0	1.0	0.0	1.0	0	831	0	0	0	unknown
6	2	2	19	52854	3412	7.686678667669184	0	1.0	803.6819509870838	0.0			0	1.0	1.0	0.0	1.0	0	832	0	0	0	unknown
6	2	2	20	46633	9461	7.686724952305667	0	1.0	913.617004000116	0.0			0	1.0	1.0	0.0	1.0	0	833	0	0	0	unknown
6	2	2	21	9357	4620	7.686817540670746	1	0.0	803.257303981809	0.0	181.0		0	1.0	1.0	0.0	1.0	0	834	0	0	0	unknown
6	2	2	22	59265	4250	7.686863837065174	0	1.0	802.0192929834593	0.0			0	1.0	1.0	0.0	1.0	0	835	0	0	0	unknown
6	2	2	23	15770	8816	7.686910130898467	1	0.0	781.9763919978867	0.0	272.0		0	1.0	1.0	0.0	1.0	0	836	0	0	0	unknown
6	2	2	24	28463	2587	7.686956426594406	1	1.0	826.5243229980115	0.0	52.0		1	1.0	0.0	1.0	2.0	0	837	0	0	0	unknown
6	2	2	25	43709	7627	7.687002728809602	0	1.0	638.4788780123927	0.0			0	1.0	1.0	0.0	1.0	0	838	0	0	0	unknown
6	2	2	26	25455	327	7.687049021827987	0	1.0	1005.5539029999636	0.0			0	1.0	1.0	0.0	1.0	0	839	1	0	1	new
6	2	2	27	30659	7054	7.687095314380714	0	1.0	703.6787949909922	0.0			0	1.0	1.0	0.0	1.0	0	840	0	0	0	unknown
6	2	2	28	72259	6637	7.6871416012290865	0	0.0	1376.9325070024931	0.0			0	0.0	0.0	1.0	2.0	0	841	0	0	0	unknown
6	2	2	29	2610	4945	7.687187832198106	0	1.0	707.0287390088197	0.0			0	1.0	1.0	0.0	1.0	0	842	0	0	0	unknown
6	2	2	30	1111	3524	7.687234131852163	0	1.0	723.6131509998813	0.0			0	1.0	1.0	0.0	1.0	0	843	0	0	0	unknown
6	2	2	31	35992	8854	7.687280428246595	0	1.0	882.5308439845685	0.0			0	1.0	1.0	0.0	1.0	0	844	0	0	0	unknown
6	2	2	32	10448	3822	7.687326719984413	1	1.0	1013.2962389907334	0.0	123.0	172.0	0	0.0	0.0	1.0	2.0	0	845	0	0	0	unknown
6	2	2	33	14529	173	7.687373025808483	1	1.0	848.5215089749546	0.0	120.0	244.0	0	0.0	0.0	1.0	2.0	0	846	1	0	3	hard
6	2	2	34	48898	3975	7.687465617316774	0	1.0	771.1518680152949	0.0			0	1.0	1.0	0.0	1.0	0	847	0	0	0	unknown
6	2	2	35	29158	8077	7.687511916039511	0	1.0	886.2061629770324	0.0			0	1.0	1.0	0.0	1.0	0	848	0	0	0	unknown
6	2	2	36	43255	3935	7.687558213365264	0	1.0	1373.1277899933048	0.0			0	1.0	1.0	0.0	1.0	0	849	0	0	0	unknown
6	2	2	37	49937	5208	7.687604509992527	1	1.0	766.1305450019426	0.0	56.0		1	1.0	0.0	1.0	2.0	0	850	0	0	0	unknown
6	2	2	38	52072	3179	7.687650808366015	0	1.0	824.3765659863129	0.0			0	1.0	1.0	0.0	1.0	0	851	0	0	0	unknown
6	2	2	39	31744	1189	7.68769710836932	0	1.0	920.6957810092716	0.0			0	1.0	1.0	0.0	1.0	0	852	0	0	0	unknown
6	2	2	40	23240	8403	7.687743406509981	0	1.0	697.2064069996121	0.0			0	1.0	1.0	0.0	1.0	0	853	0	0	0	unknown
6	2	2	41	2256	1776	7.687789692543446	0	1.0	830.9103159990627	0.0			0	1.0	1.0	0.0	1.0	0	854	0	0	0	unknown
6	2	2	42	48838	4187	7.687835999648087	0	1.0	675.1596069952939	0.0			0	1.0	1.0	0.0	1.0	0	855	0	0	0	unknown
6	2	2	43	60534	3769	7.687882297555917	0	1.0	796.085812005913	0.0			0	1.0	1.0	0.0	1.0	0	856	0	0	0	unknown
6	2	2	44	38932	4812	7.687974893371575	0	1.0	761.9348359876312	0.0			0	1.0	1.0	0.0	1.0	0	857	0	0	0	unknown
6	2	2	45	8637	6635	7.6880211824318385	0	1.0	696.1328840116039	0.0			0	1.0	1.0	0.0	1.0	0	858	0	0	0	unknown
6	2	2	46	53683	1490	7.688067488837987	1	0.0	955.4963539994787	0.0	157.0		0	1.0	1.0	0.0	1.0	0	859	0	0	0	unknown
6	2	2	47	68997	9571	7.688113785581662	1	0.0	662.4960280023515	0.0	280.0		0	1.0	1.0	0.0	1.0	0	860	0	0	0	unknown
6	2	2	48	40758	1386	7.688160085002891	1	1.0	753.3602889743634	0.0	83.0	162.0	1	1.0	0.0	1.0	2.0	0	861	0	0	0	unknown
6	2	2	49	7175	5896	7.688206374179571	1	0.0	1093.9273799885996	0.0	331.0		0	1.0	1.0	0.0	1.0	0	862	0	0	0	unknown
6	2	2	50	28758	3371	7.688252673950046	0	1.0	1051.1022889986634	0.0			0	1.0	1.0	0.0	1.0	0	863	0	0	0	unknown
6	2	2	51	34902	8303	7.688298976514488	0	1.0	841.7782020114829	0.0			0	1.0	1.0	0.0	1.0	0	864	0	0	0	unknown
6	2	2	52	11685	8258	7.688345275935717	0	1.0	811.1095039930659	0.0			0	1.0	2.0	0.0	1.0	0	865	0	0	0	unknown
6	2	2	53	28362	2854	7.688391374773347	0	1.0	990.6958439969457	0.0			0	1.0	1.0	0.0	1.0	0	866	0	0	0	unknown
6	2	2	54	56770	5745	7.688483941601588	1	1.0	1103.3533409936351	0.0	229.0	344.0	0	0.0	0.0	1.0	2.0	0	867	0	0	0	unknown
6	2	2	55	34251	8175	7.688530230661854	1	0.0	1623.415667010704	0.0	449.0		0	1.0	1.0	0.0	1.0	0	868	0	0	0	unknown
6	2	2	56	51645	6851	7.688576533109882	0	1.0	719.6702199871652	0.0			0	1.0	1.0	0.0	1.0	0	869	0	0	0	unknown
6	2	2	57	9231	108	7.688622826361097	0	1.0	1054.4928290182725	0.0			0	1.0	1.0	0.0	1.0	0	870	1	0	1	new
6	2	2	58	14595	175	7.688669121940621	1	1.0	691.7638159939088	0.0	117.0		1	1.0	0.0	1.0	2.0	0	871	1	0	2	easy
6	2	2	59	51645	6851	7.688715415657499	1	1.0	757.0400830009021	0.0	2.0		1	1.0	0.0	1.0	2.0	0	872	0	0	0	unknown
6	2	2	60	34902	8303	7.688761708559468	1	1.0	719.6140279993415	0.0	8.0		1	1.0	0.0	1.0	2.0	0	873	0	0	0	unknown
6	2	2	61	44769	3663	7.688808000530115	0	1.0	771.4510929945391	0.0			0	1.0	1.0	0.0	1.0	0	874	0	0	0	unknown
6	2	2	62	10942	1826	7.688854293781331	1	1.0	767.9116280050947	0.0	105.0		1	1.0	0.0	1.0	2.0	0	875	0	0	0	unknown
6	2	3	1	61749	848	7.690415140474214	1	1.0	873.2099249900784	0.0	72.0		1	1.0	0.0	1.0	2.0	0	876	1	0	2	easy
6	2	3	2	49342	1143	7.690461437334306	0	1.0	1015.0158930046018	0.0			0	1.0	1.0	0.0	1.0	0	877	0	0	0	unknown
6	2	3	3	12977	2020	7.690507742692716	0	1.0	710.9611369960476	0.0			0	1.0	1.0	0.0	1.0	0	878	0	0	0	unknown
6	2	3	4	37670	3783	7.690554034430533	0	1.0	758.1396299938204	0.0			0	1.0	1.0	0.0	1.0	0	879	0	0	0	unknown
6	2	3	5	38932	4812	7.6906003379262975	1	1.0	791.7068809911142	0.0	22.0		1	1.0	0.0	1.0	2.0	0	880	0	0	0	unknown
6	2	3	6	9049	106	7.690646629431285	0	1.0	780.2471890172454	0.0			0	1.0	1.0	0.0	1.0	0	881	1	0	1	new
6	2	3	7	5315	4361	7.69069292943459	0	1.0	859.24414100009	0.0			0	1.0	1.0	0.0	1.0	0	882	0	0	0	unknown
6	2	3	8	53604	1626	7.6907392285065725	0	1.0	858.634500997141	0.0			0	1.0	1.0	0.0	1.0	0	883	0	0	0	unknown
6	2	3	9	56680	3996	7.690785514889285	1	1.0	1866.541734023485	1.0	568.0		0	0.0	1.0	1.0	2.0	0	884	0	0	0	unknown
6	2	3	10	49965	4292	7.690831821761094	0	1.0	800.7511579780838	0.0			0	1.0	1.0	0.0	1.0	0	885	0	0	0	unknown
6	2	3	11	40034	8706	7.6909244215348735	1	0.0	823.8877200055867	0.0	204.0		0	1.0	1.0	0.0	1.0	0	886	0	0	0	unknown
6	2	3	12	22350	1420	7.690970681607723	0	1.0	1303.2493779901415	0.0			0	1.0	1.0	0.0	1.0	0	887	0	0	0	unknown
6	2	3	13	11021	9893	7.691017015022226	0	1.0	910.90273699956	0.0			0	1.0	1.0	0.0	1.0	0	888	0	0	0	unknown
6	2	3	14	28143	7841	7.69106327870395	0	1.0	895.4242919862736	0.0			0	1.0	1.0	0.0	1.0	0	889	0	0	0	unknown
6	2	3	15	31714	1803	7.691109612467698	0	1.0	936.1111529869959	0.0			0	1.0	1.0	0.0	1.0	0	890	0	0	0	unknown
6	2	3	16	69848	1040	7.691155871027148	1	0.0	1082.3620939918328	0.0	232.0		0	1.0	1.0	0.0	1.0	0	891	0	0	0	unknown
6	2	3	17	24550	3284	7.691202209796756	1	1.0	2023.9107650122603	0.0	761.0		0	0.0	0.0	1.0	2.0	0	892	0	0	0	unknown
6	2	3	18	63819	1498	7.691248453920707	0	1.0	1016.017317015212	0.0			0	1.0	1.0	0.0	1.0	0	893	0	0	0	unknown
6	2	3	19	60484	2485	7.691294804564677	0	1.0	664.1162800078746	0.0			0	1.0	1.0	0.0	1.0	0	894	0	0	0	unknown
6	2	3	20	40137	9008	7.6913873875746495	1	1.0	925.6657499936408	0.0	98.0	291.0	1	1.0	0.0	2.0	2.0	0	895	0	0	0	unknown
6	2	3	21	41444	9484	7.691433627624064	1	0.0	816.2866960046813	0.0	195.0	567.0	0	1.0	1.0	0.0	1.0	0	896	0	0	0	unknown
6	2	3	22	5799	1994	7.691479984554462	1	1.0	1109.1009710216895	0.0	199.0		0	0.0	0.0	1.0	2.0	0	897	0	0	0	unknown
6	2	3	23	46000	625	7.691526212613097	0	1.0	767.9991099867038	0.0			0	1.0	1.0	0.0	1.0	0	898	1	0	1	new
6	2	3	24	70152	8819	7.6915725788567215	1	1.0	776.4242900011595	0.0	147.0		1	1.0	0.0	1.0	2.0	0	899	0	0	0	unknown
6	2	3	25	58451	7020	7.691618802258746	1	1.0	1084.0089299890678	0.0	426.0		0	0.0	0.0	1.0	2.0	0	900	0	0	0	unknown
6	2	3	26	42852	570	7.691665174788795	0	1.0	716.2463510176167	0.0			0	1.0	1.0	0.0	1.0	0	901	1	1	1	new
6	2	3	27	31758	7066	7.691711389459669	0	1.0	753.7948279932608	0.0			0	1.0	1.0	0.0	1.0	0	902	0	0	0	unknown
6	2	3	28	28594	7410	7.6917577703716224	0	1.0	1017.9093000188004	0.0			0	1.0	1.0	0.0	1.0	0	903	0	0	0	unknown
6	2	3	29	40260	7306	7.691803976194933	0	1.0	703.198347997386	0.0			0	1.0	1.0	0.0	1.0	0	904	0	0	0	unknown
6	2	3	30	20294	7785	7.6918965682853	1	1.0	923.539976007305	0.0	90.0		1	1.0	0.0	1.0	2.0	0	905	0	0	0	unknown
6	2	3	31	60890	4152	7.691942870733328	1	1.0	741.8010580004192	0.0	148.0		1	1.0	0.0	1.0	2.0	0	906	0	0	0	unknown
6	2	3	32	23626	1645	7.69198915886227	1	1.0	766.510877001565	0.0	682.0		0	0.0	0.0	2.0	2.0	0	907	0	0	0	unknown
6	2	3	33	22516	276	7.6920354689937085	0	1.0	788.9406180183869	0.0			0	1.0	1.0	0.0	1.0	0	908	1	0	1	new
6	2	3	34	48834	1475	7.692081747110933	0	1.0	662.9317429906223	0.0			0	1.0	1.0	0.0	1.0	0	909	0	0	0	unknown
6	2	3	35	47849	1102	7.692128057708032	0	1.0	754.997161013307	0.0			0	1.0	1.0	0.0	1.0	0	910	0	0	0	unknown
6	2	3	36	38932	4812	7.6921743388520545	1	1.0	620.671876007691	0.0	30.0	53.0	1	1.0	0.0	1.0	2.0	0	911	0	0	0	unknown
6	2	3	37	60890	4152	7.692220637225547	1	1.0	603.2661460048985	0.0	5.0	154.0	1	1.0	0.0	1.0	2.0	0	912	0	0	0	unknown
6	2	3	38	36911	485	7.692266829893923	1	1.0	688.958682003431	0.0	83.0	131.0	1	1.0	0.0	1.0	2.0	0	913	1	0	3	easy
6	2	3	39	40841	534	7.692313118604942	0	1.0	1044.0622000023723	0.0			0	1.0	1.0	0.0	1.0	0	914	1	0	1	new
6	2	3	40	31062	7561	7.6923594194231555	1	1.0	902.0176140184049	0.0	173.0	296.0	0	0.0	0.0	1.0	2.0	0	915	0	0	0	unknown
6	2	3	41	1761	7116	7.692405713140033	0	1.0	1224.5019509864503	0.0			0	1.0	1.0	0.0	1.0	0	916	0	0	0	unknown
6	2	3	42	37684	4035	7.692498293588868	0	1.0	752.9663399909624	0.0			0	1.0	1.0	0.0	1.0	0	917	0	0	0	unknown
6	2	3	43	52694	6077	7.692544593825007	0	0.0	2753.6930719797965	1.0			0	0.0	1.0	1.0	2.0	0	918	0	0	0	unknown
6	2	3	44	65540	4593	7.6925908899866045	0	1.0	648.0301989940926	0.0			0	1.0	1.0	0.0	1.0	0	919	0	0	0	unknown
6	2	3	45	8257	4442	7.6926371802110225	0	1.0	976.0761110228486	0.0			0	1.0	1.0	0.0	1.0	0	920	0	0	0	unknown
6	2	3	46	43500	9130	7.692683469853365	1	1.0	1152.899995999178	0.0	137.0		1	1.0	0.0	1.0	2.0	0	921	0	0	0	unknown
6	2	3	47	61749	848	7.692729771020822	1	1.0	564.5462090033107	0.0	45.0	118.0	1	1.0	0.0	1.0	2.0	0	922	1	0	3	easy
6	2	3	48	37533	5221	7.69277606846299	0	1.0	843.7460229906718	0.0			0	1.0	1.0	0.0	1.0	0	923	0	0	0	unknown
6	2	3	49	59997	5313	7.6928223598515615	1	1.0	792.0425199845341	0.0	133.0	163.0	1	1.0	0.0	1.0	2.0	0	924	0	0	0	unknown
6	2	3	50	72345	4893	7.692868653452022	0	1.0	1338.413213001331	0.0			0	1.0	1.0	0.0	1.0	0	925	0	0	0	unknown
6	2	3	51	9028	105	7.692914941464551	0	1.0	771.6661799931898	0.0			0	1.0	1.0	0.0	1.0	0	926	1	0	1	new
6	2	3	52	65772	1937	7.692961234715766	0	1.0	1307.789641985437	0.0			0	1.0	1.0	0.0	1.0	0	927	0	0	0	unknown
6	2	3	53	49055	4900	7.693007537629454	1	0.0	790.3629220090806	0.0	802.0		0	1.0	1.0	0.0	1.0	0	928	0	0	0	unknown
