SUBJECT	SESSION	RUN	TRIAL	73KID	10KID	TIME	ISOLD	ISCORRECT	RT	CHANGEMIND	MEMORYRECENT	MEMORYFIRST	ISOLDCURRENT	ISCORRECTCURRENT	TOTAL1	TOTAL2	BUTTON	MISSINGDATA	trial_full	is_shared1000	is_special100	shared1000_repNum	presentation_type
2	1	1	1	46003	626	0.7310767321614547	0	1.0	871.8141770223156	0.0			0	1.0	1	0	1.0	0	1	1	0	1	new
2	1	1	2	42020	5013	0.7311230836203321	0	1.0	899.3699760176241	0.0			0	1.0	1	0	1.0	0	2	0	0	0	unknown
2	1	1	3	22500	4850	0.7311693849042057	0	1.0	534.9888829805424	0.0			0	1.0	1	0	1.0	0	3	0	0	0	unknown
2	1	1	4	61983	8823	0.7312156152911484	0	1.0	525.0758030160796	0.0			0	1.0	1	0	1.0	0	4	0	0	0	unknown
2	1	1	5	48145	9538	0.7312619172735139	0	1.0	551.5463429910596	0.0			0	1.0	1	0	1.0	0	5	0	0	0	unknown
2	1	1	6	24129	6061	0.7313082861946895	0	1.0	612.9322380002121	0.0			0	1.0	1	0	1.0	0	6	0	0	0	unknown
2	1	1	7	48497	4421	0.7313545055221766	0	1.0	740.4872280021663	0.0			0	1.0	1	0	1.0	0	7	0	0	0	unknown
2	1	1	8	47597	3858	0.7314008724642918	0	1.0	609.5724769984372	0.0			0	1.0	1	0	1.0	0	8	0	0	0	unknown
2	1	1	9	36218	8124	0.731447089696303	0	1.0	639.4386710016988	0.0			0	1.0	1	0	1.0	0	9	0	0	0	unknown
2	1	1	10	33066	4843	0.7314934668829663	0	1.0	765.2091470081358	0.0			0	1.0	1	0	1.0	0	10	0	0	0	unknown
2	1	1	11	70244	7941	0.7315396803896874	0	1.0	551.6972029872704	0.0			0	1.0	1	0	1.0	0	11	0	0	0	unknown
2	1	1	12	19692	4523	0.7315860639791935	0	1.0	472.76005599997006	0.0			0	1.0	1	0	1.0	0	12	0	0	0	unknown
2	1	1	13	31380	1070	0.7316786595620214	0	1.0	593.804864998674	0.0			0	1.0	1	0	1.0	0	13	0	0	0	unknown
2	1	1	14	41342	9588	0.7317248586332425	0	1.0	488.1083309883252	0.0			0	1.0	1	0	1.0	0	14	0	0	0	unknown
2	1	1	15	44699	4623	0.7317712533986195	0	1.0	593.8960350176785	0.0			0	1.0	1	0	1.0	0	15	0	0	0	unknown
2	1	1	16	52819	3185	0.7318174469983205	0	1.0	702.6550390000921	0.0			0	1.0	1	0	1.0	0	16	0	0	0	unknown
2	1	1	17	23934	4586	0.7318638423457741	0	1.0	659.5110109774396	0.0			0	1.0	1	0	1.0	0	17	0	0	0	unknown
2	1	1	18	40525	1009	0.731910036294721	0	1.0	557.6512199768331	0.0			0	1.0	1	0	1.0	0	18	0	0	0	unknown
2	1	1	19	18695	8634	0.731956441886723	0	1.0	544.5736539841164	0.0			0	1.0	1	0	1.0	0	19	0	0	0	unknown
2	1	1	20	16008	9648	0.7320026238448917	0	1.0	516.0392689867876	0.0			0	1.0	1	0	1.0	0	20	0	0	0	unknown
2	1	1	21	23841	9425	0.7320490402635186	0	1.0	641.0027290112339	0.0			0	1.0	1	0	1.0	0	21	0	0	0	unknown
2	1	1	22	8750	1344	0.7320951449219137	0	1.0	891.9005060160998	0.0			0	1.0	1	0	1.0	0	22	0	0	0	unknown
2	1	1	23	54961	7441	0.7321877406211569	0	1.0	510.7753060001414	0.0			0	1.0	1	0	1.0	0	23	0	0	0	unknown
2	1	1	24	37094	3902	0.7322340382961556	0	1.0	518.4504789940547	0.0			0	1.0	1	0	1.0	0	24	0	0	0	unknown
2	1	1	25	22591	8795	0.7322802974376827	0	1.0	625.4477339971345	0.0			0	1.0	1	0	1.0	0	25	0	0	0	unknown
2	1	1	26	38629	1840	0.7323266080347821	0	1.0	533.663087990135	0.0			0	1.0	1	0	1.0	0	26	0	0	0	unknown
2	1	1	27	57814	1356	0.7323728827759624	0	1.0	502.82042601611465	0.0			0	1.0	1	0	1.0	0	27	0	0	0	unknown
2	1	1	28	51899	5506	0.7324191941879689	0	1.0	839.4889690098352	0.0			0	1.0	1	0	1.0	0	28	0	0	0	unknown
2	1	1	29	48618	666	0.7324654675321653	0	1.0	851.8806159845553	0.0			0	1.0	1	0	1.0	0	29	1	0	1	new
2	1	1	30	29707	8240	0.7325117711443454	0	1.0	571.1222709796857	0.0			0	1.0	1	0	1.0	0	30	0	0	0	unknown
2	1	1	31	17626	7232	0.7325580613687634	0	1.0	669.5527869742364	0.0			0	1.0	1	0	1.0	0	31	0	0	0	unknown
2	1	1	32	2548	5691	0.7326043577631935	0	1.0	557.0839479914865	0.0			0	1.0	1	0	1.0	0	32	0	0	0	unknown
2	1	1	33	57847	6661	0.7326506450772285	0	1.0	615.5168589903042	0.0			0	1.0	1	0	1.0	0	33	0	0	0	unknown
2	1	1	34	72678	2400	0.732696934021078	0	1.0	665.1426930038724	0.0			0	1.0	1	0	1.0	0	34	0	0	0	unknown
2	1	1	35	2543	2252	0.7327895323978736	0	1.0	520.298836985603	0.0			0	1.0	1	0	1.0	0	35	0	0	0	unknown
2	1	1	36	44981	612	0.7328358212253078	0	1.0	767.7798889926634	0.0			0	1.0	1	0	1.0	0	36	1	0	1	new
2	1	1	37	68768	1609	0.7328821143601089	0	1.0	758.8525289902462	0.0			0	1.0	1	0	1.0	0	37	0	0	0	unknown
2	1	1	38	15319	3579	0.7329284141305834	0	1.0	589.9347490048967	0.0			0	1.0	1	0	1.0	0	38	0	0	0	unknown
2	1	1	39	13145	1703	0.7329747078474611	0	1.0	971.6698180127424	0.0			0	1.0	1	0	1.0	0	39	0	0	0	unknown
2	1	1	40	13529	9976	0.7330210008658468	0	1.0	789.3691750068683	0.0			0	1.0	1	0	1.0	0	40	0	0	0	unknown
2	1	1	41	55547	5770	0.7330672937678173	0	1.0	583.2611770019867	0.0			0	1.0	1	0	1.0	0	41	0	0	0	unknown
2	1	1	42	19537	8748	0.7331135901622474	0	1.0	881.0620490112342	0.0			0	1.0	1	0	1.0	0	42	0	0	0	unknown
2	1	1	43	67627	9202	0.7331598832970485	0	1.0	632.269396999618	0.0			0	1.0	1	0	1.0	0	43	0	0	0	unknown
2	1	1	44	55635	3123	0.7332061700290068	0	1.0	938.5094299796035	0.0			0	1.0	1	0	1.0	0	44	0	0	0	unknown
2	1	1	45	32626	436	0.7332524721277877	0	1.0	627.0066990109625	0.0			0	1.0	1	0	1.0	0	45	1	0	1	new
2	1	1	46	23934	4586	0.7333450630540028	1	1.0	764.8893400037196	0.0	28.0		1	1.0	0	1	2.0	0	46	0	0	0	unknown
2	1	1	47	36748	1499	0.7333912497851997	0	1.0	704.6577100118157	0.0			0	1.0	1	0	1.0	0	47	0	0	0	unknown
2	1	1	48	39269	2872	0.7334375465288758	0	1.0	1074.5702909771353	0.0			0	1.0	1	0	1.0	0	48	0	0	0	unknown
2	1	1	49	17169	9173	0.7334838422248139	0	1.0	753.0584220075981	0.0			0	1.0	1	0	1.0	0	49	0	0	0	unknown
2	1	1	50	62422	2665	0.7335301279090344	0	1.0	1342.1771439898291	0.0			0	1.0	1	0	1.0	0	50	0	0	0	unknown
2	1	1	51	58942	1045	0.7335764293093234	0	1.0	1057.7763119945303	0.0			0	1.0	1	0	1.0	0	51	0	0	0	unknown
2	1	1	52	39785	1974	0.7336227189516648	0	1.0	877.6236770208925	0.0			0	1.0	1	0	1.0	0	52	0	0	0	unknown
2	1	1	53	985	2268	0.7336690170923247	0	1.0	946.4005659974644	0.0			0	1.0	1	0	1.0	0	53	0	0	0	unknown
2	1	1	54	50444	7771	0.7337153101107105	0	1.0	988.7748939800077	0.0			0	1.0	1	0	1.0	0	54	0	0	0	unknown
2	1	1	55	17055	6336	0.7338078947504982	0	1.0	706.2025009945501	0.0			0	1.0	1	0	1.0	0	55	0	0	0	unknown
2	1	1	56	53053	727	0.7338541897479444	0	1.0	593.1465770117939	0.0			0	1.0	1	0	1.0	0	56	1	1	1	new
2	1	1	57	4931	40	0.7339004859095439	0	1.0	1050.321463990258	0.0			0	1.0	1	0	1.0	0	57	1	0	1	new
2	1	1	58	38030	6000	0.7339467742713168	0	1.0	909.9827390164138	0.0			0	1.0	1	0	1.0	0	58	0	0	0	unknown
2	1	1	59	8985	7046	0.7339930743910372	0	1.0	976.8392599944491	0.0			0	1.0	1	0	1.0	0	59	0	0	0	unknown
2	1	1	60	1592	1607	0.7340393688064067	0	1.0	980.5023820081261	0.0			0	1.0	1	0	1.0	0	60	0	0	0	unknown
2	1	1	61	50558	2132	0.7340856634546071	0	1.0	941.0388420219533	0.0			0	1.0	1	0	1.0	0	61	0	0	0	unknown
2	1	1	62	7239	5352	0.7341319565894082	0	1.0	1005.7687649969012	0.0			0	1.0	1	0	1.0	0	62	0	0	0	unknown
2	1	1	63	17445	2514	0.7341782519361004	0	1.0	1001.6575169865972	0.0			0	1.0	1	0	1.0	0	63	0	0	0	unknown
2	1	2	1	4983	5730	0.7360031848074868	0	1.0	1061.7191799974535	0.0			0	1.0	1	0	1.0	0	64	0	0	0	unknown
2	1	2	2	28151	4135	0.736049490631558	0	1.0	1070.867063011974	0.0			0	1.0	1	0	1.0	0	65	0	0	0	unknown
2	1	2	3	69581	5169	0.7360957686323673	0	1.0	1016.58085201052	0.0			0	1.0	1	0	1.0	0	66	0	0	0	unknown
2	1	2	4	12204	5821	0.7361420778324828	0	1.0	1188.0877400108147	0.0			0	1.0	1	0	1.0	0	67	0	0	0	unknown
2	1	2	5	58806	8842	0.7361883562989532	0	1.0	1154.7593699942809	0.0			0	1.0	1	0	1.0	0	68	0	0	0	unknown
2	1	2	6	28151	4135	0.7362346579320728	1	1.0	849.0011240064632	0.0	3.0		1	1.0	0	1	2.0	0	69	0	0	0	unknown
2	1	2	7	34370	4990	0.736280944547616	0	0.0	903.0212899961043	0.0			0	0.0	0	1	2.0	0	70	0	0	0	unknown
2	1	2	8	36146	9955	0.7363272480433806	0	1.0	1045.05333097768	0.0			0	1.0	1	0	1.0	0	71	0	0	0	unknown
2	1	2	9	26259	7331	0.7363735404796898	0	1.0	1101.8759669968858	0.0			0	1.0	1	0	1.0	0	72	0	0	0	unknown
2	1	2	10	62449	3470	0.736419835477136	0	1.0	1031.514385016635	0.0			0	1.0	1	0	1.0	0	73	0	0	0	unknown
2	1	2	11	71218	9913	0.7364661323372274	0	1.0	1091.8397509958595	0.0			0	1.0	1	0	1.0	0	74	0	0	0	unknown
2	1	2	12	61309	3207	0.736558717675507	0	1.0	775.3942440031096	0.0			0	1.0	1	0	1.0	0	75	0	0	0	unknown
2	1	2	13	2226	5799	0.7366050102282315	0	1.0	1181.262450001668	0.0			0	1.0	1	0	1.0	0	76	0	0	0	unknown
2	1	2	14	59796	4068	0.7366512961452826	0	1.0	1340.847929008305	0.0			0	1.0	1	0	1.0	0	77	0	0	0	unknown
2	1	2	15	25152	2204	0.736697593703866	0	1.0	1532.723080017604	0.0			0	1.0	1	0	1.0	0	78	0	0	0	unknown
2	1	2	16	37882	7081	0.736743891146034	0	1.0	956.308696011547	0.0			0	1.0	1	0	1.0	0	79	0	0	0	unknown
2	1	2	17	59935	3632	0.7367901861434802	0	1.0	1215.1513270218857	0.0			0	1.0	1	0	1.0	0	80	0	0	0	unknown
2	1	2	18	53955	3444	0.736836479161866	0	1.0	1258.0261029943358	0.0			0	1.0	1	0	1.0	0	81	0	0	0	unknown
2	1	2	19	37937	2840	0.7368827745085582	0	1.0	1401.9982750178315	0.0			0	1.0	1	0	1.0	0	82	0	0	0	unknown
2	1	2	20	56366	1538	0.7369290677597746	0	1.0	1406.032844010042	0.0			0	1.0	1	0	1.0	0	83	0	0	0	unknown
2	1	2	21	33690	8951	0.737021654844284	0	1.0	690.2248699916527	0.0			0	1.0	1	0	1.0	0	84	0	0	0	unknown
2	1	2	22	51621	8009	0.7370679463492706	0	1.0	1229.9945370177738	0.0			0	1.0	1	0	1.0	0	85	0	0	0	unknown
2	1	2	23	27019	5772	0.7371142440242692	0	1.0	1219.29086901946	0.0			0	1.0	1	0	1.0	0	86	0	0	0	unknown
2	1	2	24	64046	5200	0.7371604469371958	0	1.0	1233.0487990111578	0.0			0	1.0	1	0	1.0	0	87	0	0	0	unknown
2	1	2	25	43768	7984	0.7372067312244325	0	1.0	1231.3967169902753	0.0			0	1.0	1	0	1.0	0	88	0	0	0	unknown
2	1	2	26	59677	9865	0.7372530284337699	0	1.0	1365.8261250238863	0.0			0	1.0	1	0	1.0	0	89	0	0	0	unknown
2	1	2	27	11300	7367	0.7372993188910186	0	1.0	1213.00579799572	0.0			0	1.0	1	0	1.0	0	90	0	0	0	unknown
2	1	2	28	32626	436	0.737345612491481	1	1.0	864.0322099963668	0.0	45.0		1	1.0	0	1	2.0	0	91	1	0	2	easy
2	1	2	29	49483	3014	0.73739191389177	0	1.0	1102.6347799925131	0.0			0	1.0	1	0	1.0	0	92	0	0	0	unknown
2	1	2	30	51853	3569	0.7374382008565589	0	1.0	1044.1480469889939	0.0			0	1.0	1	0	1.0	0	93	0	0	0	unknown
2	1	2	31	69397	6871	0.7375307925976812	0	1.0	903.0141039984301	0.0			0	1.0	1	0	1.0	0	94	0	0	0	unknown
2	1	2	32	35304	4263	0.7375770877115428	0	1.0	1205.7008290139493	0.0			0	1.0	1	0	1.0	0	95	0	0	0	unknown
2	1	2	33	3939	3694	0.7376233843388035	0	1.0	1103.9708299795163	0.0			0	1.0	1	0	1.0	0	96	0	0	0	unknown
2	1	2	34	10198	5322	0.737669673631899	0	1.0	1193.3056919951923	0.0			0	1.0	1	0	1.0	0	97	0	0	0	unknown
2	1	2	35	26354	4061	0.737715970026329	0	1.0	1114.2792320169974	0.0			0	1.0	1	0	1.0	0	98	0	0	0	unknown
2	1	2	36	20760	7985	0.7377622661879286	0	1.0	870.408729999326	0.0			0	1.0	1	0	1.0	0	99	0	0	0	unknown
2	1	2	37	69807	6041	0.7378085565287619	0	1.0	1172.3315060080495	0.0			0	1.0	1	0	1.0	0	100	0	0	0	unknown
2	1	2	38	31933	6142	0.7378548569977283	0	1.0	1255.3970360022504	0.0			0	1.0	1	0	1.0	0	101	0	0	0	unknown
2	1	2	39	59833	6843	0.7379011480370536	0	1.0	1206.6241319989783	0.0			0	1.0	1	0	1.0	0	102	0	0	0	unknown
2	1	2	40	52323	7442	0.737947442336008	0	1.0	1591.8052089982666	0.0			0	1.0	1	0	1.0	0	103	0	0	0	unknown
2	1	2	41	47020	1108	0.7380400307010859	0	1.0	1103.2764740230048	0.0			0	1.0	1	0	1.0	0	104	0	0	0	unknown
2	1	2	42	42228	9936	0.7380863286089152	0	1.0	702.2639540082308	0.0			0	1.0	1	0	1.0	0	105	0	0	0	unknown
2	1	2	43	47326	2757	0.7381326146423816	0	1.0	1180.34198298119	0.0			0	1.0	2	0	1.0	0	106	0	0	0	unknown
2	1	2	44	69268	9658	0.7381789056817069	0	1.0	1204.2368669935968	0.0			0	1.0	1	0	1.0	0	107	0	0	0	unknown
2	1	2	45	69581	5169	0.7382252066163346	1	1.0	727.8793530131225	0.0	41.0		1	1.0	0	1	2.0	0	108	0	0	0	unknown
2	1	2	46	72624	3376	0.7382715017301961	0	1.0	930.5428530205971	0.0			0	1.0	1	0	1.0	0	109	0	0	0	unknown
2	1	2	47	60657	7287	0.738317795912735	0	1.0	1088.2202979992144	0.0			0	1.0	2	0	1.0	0	110	0	0	0	unknown
2	1	2	48	11410	5363	0.7383640877669677	0	1.0	1144.5516980020327	0.0			0	1.0	1	0	1.0	0	111	0	0	0	unknown
2	1	2	49	57804	5834	0.7384102857904508	0	1.0	1576.6916289867368	0.0			0	1.0	1	0	1.0	0	112	0	0	0	unknown
2	1	2	50	40033	6448	0.7384565772954375	0	1.0	1335.0874079915227	0.0			0	1.0	1	0	1.0	0	113	0	0	0	unknown
2	1	2	51	39603	4186	0.7385028700809925	0	1.0	1258.9034420088865	0.0			0	1.0	1	0	1.0	0	114	0	0	0	unknown
2	1	2	52	62212	9715	0.7385491718305274	0	1.0	1415.8041490009055	0.0			0	1.0	1	0	1.0	0	115	0	0	0	unknown
2	1	2	53	19446	1430	0.738641758565791	0	1.0	1120.9088549949229	0.0			0	1.0	1	0	1.0	0	116	0	0	0	unknown
2	1	2	54	28904	9621	0.7386880511185154	0	1.0	1212.2687340015543	0.0			0	1.0	1	0	1.0	0	117	0	0	0	unknown
2	1	2	55	64363	7112	0.7387343489099293	0	1.0	863.8108329905663	0.0			0	1.0	1	0	1.0	0	118	0	0	0	unknown
2	1	2	56	28873	9845	0.738780641928315	0	1.0	1303.0371329805348	0.0			0	1.0	1	0	1.0	0	119	0	0	0	unknown
2	1	2	57	39707	7473	0.7388269343646243	0	1.0	1647.1834759868216	0.0			0	1.0	1	0	1.0	0	120	0	0	0	unknown
2	1	2	58	6432	60	0.7388732341350988	0	1.0	1307.4988070002291	0.0			0	1.0	1	0	1.0	0	121	1	0	1	new
2	1	2	59	47326	2757	0.7389195259893313	1	1.0	718.944027001271	0.0	15.0		1	1.0	0	1	2.0	0	122	0	0	0	unknown
2	1	2	60	19684	2704	0.7389658105093985	0	1.0	1054.4499380048364	0.0			0	1.0	1	0	1.0	0	123	0	0	0	unknown
2	1	2	61	18695	8634	0.7390121116768568	1	0.0	1351.4001139847096	0.0	104.0		1	0.0	1	0	1.0	0	124	0	0	0	unknown
2	1	2	62	68740	4900	0.7390584087697789	0	1.0	1167.5181449973024	0.0			0	1.0	1	0	1.0	0	125	0	0	0	unknown
2	1	3	1	30533	7336	0.7406586242141202	0	1.0	1412.6292130094953	0.0			0	1.0	1	0	1.0	0	126	0	0	0	unknown
2	1	3	2	70336	970	0.7407049243338406	0	1.0	1425.429302995326	0.0			0	1.0	1	0	1.0	0	127	1	0	1	new
2	1	3	3	69020	4229	0.7407512095523998	0	1.0	1212.2186349879485	0.0			0	1.0	1	0	1.0	0	128	0	0	0	unknown
2	1	3	4	43875	3770	0.7407975147943943	0	1.0	1268.7369659834076	0.0			0	1.0	1	0	1.0	0	129	0	0	0	unknown
2	1	3	5	66193	3284	0.7408437941921874	0	1.0	1370.2903240045998	0.0			0	1.0	1	0	1.0	0	130	0	0	0	unknown
2	1	3	6	61214	6316	0.740890099783428	0	1.0	1200.7152570004107	0.0			0	1.0	1	0	1.0	0	131	0	0	0	unknown
2	1	3	7	72375	1266	0.740936383837834	0	1.0	1402.382505009882	0.0			0	1.0	1	0	1.0	0	132	0	0	0	unknown
2	1	3	8	36577	479	0.7409826853545382	0	1.0	1127.6849629939531	0.0			0	1.0	1	0	1.0	0	133	1	0	1	new
2	1	3	9	17552	6277	0.7410289640538394	0	1.0	1154.3567050248384	0.0			0	1.0	1	0	1.0	0	134	0	0	0	unknown
2	1	3	10	12528	9754	0.7410752670839428	0	1.0	1032.8563409857452	0.0			0	1.0	1	0	1.0	0	135	0	0	0	unknown
2	1	3	11	60784	7300	0.7411678642965853	0	1.0	825.4770789935718	0.0			0	1.0	1	0	1.0	0	136	0	0	0	unknown
2	1	3	12	6742	1104	0.7412141496315598	0	1.0	1135.0994719832668	0.0			0	1.0	1	0	1.0	0	137	0	0	0	unknown
2	1	3	13	67455	7313	0.7412604477722197	0	1.0	1430.391766014509	0.0			0	1.0	1	0	1.0	0	138	0	0	0	unknown
2	1	3	14	3678	3250	0.7413067354355007	0	1.0	1419.9183830060065	0.0			0	1.0	1	0	1.0	0	139	0	0	0	unknown
2	1	3	15	9433	6726	0.7413530331104993	0	1.0	1525.4947649955284	0.0			0	1.0	1	0	1.0	0	140	0	0	0	unknown
2	1	3	16	8827	8054	0.7413993158843368	0	1.0	1667.0290069887415	0.0			0	1.0	1	0	1.0	0	141	0	0	0	unknown
2	1	3	17	8120	7613	0.7414456324186176	0	1.0	1403.441877977457	0.0			0	1.0	1	0	1.0	0	142	0	0	0	unknown
2	1	3	18	41994	6236	0.7414919116999953	0	1.0	1164.151684002718	0.0			0	1.0	1	0	1.0	0	143	0	0	0	unknown
2	1	3	19	4355	2259	0.7415382133331149	0	1.0	1390.5800490174443	0.0			0	1.0	1	0	1.0	0	144	0	0	0	unknown
2	1	3	20	3424	3968	0.7415844986680895	0	1.0	1229.552375996718	0.0			0	1.0	1	0	1.0	0	145	0	0	0	unknown
2	1	3	21	23617	2980	0.7416307886596769	0	1.0	1124.728390976088	0.0			0	1.0	1	0	1.0	0	146	0	0	0	unknown
2	1	3	22	70801	9718	0.7416770899435505	0	1.0	1275.1409259799402	0.0			0	1.0	1	0	1.0	0	147	0	0	0	unknown
2	1	3	23	68936	1550	0.7417233861051499	0	1.0	1154.831243009539	0.0			0	1.0	1	0	1.0	0	148	0	0	0	unknown
2	1	3	24	23617	2980	0.7417696715565398	1	1.0	811.8980690196622	0.0	2.0		1	1.0	0	1	2.0	0	149	0	0	0	unknown
2	1	3	25	6573	6274	0.7418622662080451	0	1.0	1061.9590980059	0.0			0	1.0	1	0	1.0	0	150	0	0	0	unknown
2	1	3	26	34456	6666	0.7419085635337977	0	1.0	1146.3865980040282	0.0			0	1.0	1	0	1.0	0	151	0	0	0	unknown
2	1	3	27	9886	3580	0.7419548538746312	0	1.0	1332.0165000041015	0.0			0	1.0	1	0	1.0	0	152	0	0	0	unknown
2	1	3	28	57047	791	0.7420011450303718	0	1.0	1204.2220959847327	0.0			0	1.0	1	0	1.0	0	153	1	0	1	new
2	1	3	29	50444	7771	0.7420474470127373	1	1.0	892.2490590193775	0.0	99.0		1	1.0	0	1	2.0	0	154	0	0	0	unknown
2	1	3	30	20760	7985	0.7420937408460304	1	1.0	788.5817789938301	0.0	55.0		1	1.0	0	2	2.0	0	155	0	0	0	unknown
2	1	3	31	54042	5651	0.7421400331659243	0	1.0	837.324353022268	0.0			0	1.0	1	0	1.0	0	156	0	0	0	unknown
2	1	3	32	11403	4786	0.7421862300252541	0	1.0	870.5394989810885	0.0			0	1.0	1	0	1.0	0	157	0	0	0	unknown
2	1	3	33	16265	5910	0.7422325162915512	0	0.0	1076.968437002506	0.0			0	0.0	0	1	2.0	0	158	0	0	0	unknown
2	1	3	34	41669	6588	0.7422788178082556	0	1.0	1175.6423150072803	0.0			0	1.0	1	0	1.0	0	159	0	0	0	unknown
2	1	3	35	30615	5925	0.7423251151340082	0	1.0	1181.2109239981507	0.0			0	1.0	1	0	1.0	0	160	0	0	0	unknown
2	1	3	36	22618	5699	0.7424176974454894	0	1.0	835.2934110153002	0.0			0	1.0	1	0	1.0	0	161	0	0	0	unknown
2	1	3	37	71870	3719	0.7424639906967058	0	1.0	1375.8613170066383	0.0			0	1.0	1	0	1.0	0	162	0	0	0	unknown
2	1	3	38	1367	5440	0.7425102811539545	0	1.0	1041.9699700141791	0.0			0	1.0	1	0	1.0	0	163	0	0	0	unknown
2	1	3	39	32515	9470	0.7425565806915982	0	1.0	1226.5636299853213	0.0			0	1.0	1	0	1.0	0	164	0	0	0	unknown
2	1	3	40	27012	1330	0.742602878017351	0	1.0	1202.1445599966682	0.0			0	1.0	1	0	1.0	0	165	0	0	0	unknown
2	1	3	41	41273	8935	0.7426491660298778	0	1.0	1103.5571259853896	0.0			0	1.0	1	0	1.0	0	166	0	0	0	unknown
2	1	3	42	7660	80	0.7426954639377072	0	1.0	1168.8830369967036	0.0			0	1.0	1	0	1.0	0	167	1	0	1	new
2	1	3	43	49803	2159	0.7427417538128793	0	1.0	1091.5299569896888	0.0			0	1.0	1	0	1.0	0	168	0	0	0	unknown
2	1	3	44	31820	1866	0.7427880549803376	0	1.0	1026.3603820058051	0.0			0	1.0	1	0	1.0	0	169	0	0	0	unknown
2	1	3	45	8080	5965	0.7428806439274922	0	1.0	1263.830390991643	0.0			0	1.0	1	0	1.0	0	170	0	0	0	unknown
2	1	3	46	8629	7512	0.7429269406711682	0	1.0	1136.06656898628	0.0			0	1.0	1	0	1.0	0	171	0	0	0	unknown
2	1	3	47	5667	4025	0.7429732269374653	0	1.0	1217.0651229971554	0.0			0	1.0	1	0	1.0	0	172	0	0	0	unknown
2	1	3	48	5667	4025	0.7430195263586938	1	1.0	754.3237909849267	0.0	0.0		1	1.0	0	1	2.0	0	173	0	0	0	unknown
2	1	3	49	30374	403	0.7430658198427408	0	1.0	802.85878299037	0.0			0	1.0	1	0	1.0	0	174	1	0	1	new
2	1	3	50	39459	1665	0.7431121130939573	0	1.0	1117.835646989988	0.0			0	1.0	1	0	1.0	0	175	0	0	0	unknown
2	1	3	51	4988	9667	0.7431584106525406	0	1.0	1259.519276994979	0.0			0	1.0	1	0	1.0	0	176	0	0	0	unknown
2	1	3	52	25960	340	0.7432046935427933	0	0.0	972.7038120036012	0.0			0	0.0	0	1	2.0	0	177	1	0	1	new
2	1	3	53	60333	6692	0.7432509954087436	0	1.0	844.1893540148156	0.0			0	1.0	1	0	1.0	0	178	0	0	0	unknown
2	1	3	54	57869	3824	0.7433435874991118	0	1.0	1571.706685994286	0.0			0	1.0	1	0	1.0	0	179	0	0	0	unknown
2	1	3	55	7914	1160	0.7433897852897644	0	1.0	1335.252010001568	0.0			0	1.0	1	0	1.0	0	180	0	0	0	unknown
2	1	3	56	8985	7046	0.743436075747013	1	0.0	1151.7879099992567	0.0	121.0		1	0.0	1	0	1.0	0	181	0	0	0	unknown
2	1	3	57	8579	7852	0.7434823692310601	0	1.0	1162.0168530207593	0.0			0	1.0	1	0	1.0	0	182	0	0	0	unknown
2	1	3	58	3971	5291	0.7435286571271718	0	1.0	1403.012930008117	0.0			0	1.0	1	0	1.0	0	183	0	0	0	unknown
2	1	3	59	23867	3595	0.7435749595751985	0	1.0	1362.0921520050615	0.0			0	1.0	1	0	1.0	0	184	0	0	0	unknown
2	1	3	60	21790	2325	0.7436212506145238	0	1.0	1358.474175009178	0.0			0	1.0	1	0	1.0	0	185	0	0	0	unknown
2	1	3	61	33116	4285	0.7436675450298935	0	1.0	1411.1071650113445	0.0			0	1.0	1	0	1.0	0	186	0	0	0	unknown
2	1	3	62	57417	8561	0.7437138321110978	0	1.0	1384.3729270156473	0.0			0	1.0	1	0	1.0	0	187	0	0	0	unknown
2	1	3	63	49483	3014	0.7437601335113868	1	1.0	708.548611990409	0.0	95.0		1	1.0	0	1	2.0	0	188	0	0	0	unknown
2	1	4	1	30374	403	0.7453427026048302	1	1.0	1260.1721259998155	0.0	14.0		1	1.0	0	1	2.0	0	189	1	0	2	easy
2	1	4	2	44981	612	0.7453890085453166	1	1.0	1737.4214449955616	0.0	153.0		1	1.0	0	1	2.0	0	190	1	0	2	easy
2	1	4	3	39117	4687	0.7454352885251864	0	1.0	964.0285870118531	0.0			0	1.0	1	0	1.0	0	191	0	0	0	unknown
2	1	4	4	23841	9425	0.7454815907403826	1	1.0	1302.083123999182	0.0	170.0		1	1.0	0	1	2.0	0	192	0	0	0	unknown
2	1	4	5	22717	7750	0.7455278831766918	0	1.0	1302.418432023842	0.0			0	1.0	1	0	1.0	0	193	0	0	0	unknown
2	1	4	6	22340	3194	0.7455741734011098	0	0.0	1191.3010290008967	0.0			0	0.0	0	1	2.0	0	194	0	0	0	unknown
2	1	4	7	27946	2628	0.7456204711925238	0	1.0	1134.5269349985756	0.0			0	1.0	1	0	1.0	0	195	0	0	0	unknown
2	1	4	8	18290	9722	0.7456667800433933	0	1.0	1215.874815999996	0.0			0	1.0	1	0	1.0	0	196	0	0	0	unknown
2	1	4	9	57417	8561	0.7457130512921138	1	1.0	903.7997290142813	0.0	9.0		1	1.0	0	1	2.0	0	197	0	0	0	unknown
2	1	4	10	29074	2670	0.7457593504805117	0	1.0	837.7457949973177	0.0			0	1.0	1	0	1.0	0	198	0	0	0	unknown
2	1	4	11	63028	5109	0.7458519326755777	0	0.0	1271.2481349881273	0.0			0	0.0	0	1	2.0	0	199	0	0	0	unknown
2	1	4	12	51302	3457	0.7458981414092704	0	1.0	2154.826454992872	0.0			0	1.0	1	0	1.0	0	200	0	0	0	unknown
2	1	4	13	69768	9972	0.7459444334963335	0	1.0	2001.929291000124	0.0			0	1.0	1	0	1.0	0	201	0	0	0	unknown
2	1	4	14	65415	899	0.7459907263983041	0	1.0	1516.132746997755	0.0			0	1.0	1	0	1.0	0	202	1	0	1	new
2	1	4	15	8602	5741	0.7460370218614116	0	1.0	970.6659980001859	0.0			0	1.0	1	0	1.0	0	203	0	0	0	unknown
2	1	4	16	42722	3831	0.7460833172081038	0	1.0	1202.8252859890927	0.0			0	1.0	1	0	1.0	0	204	0	0	0	unknown
2	1	4	17	11472	3799	0.7461296112742274	0	1.0	1062.8648389829323	0.0			0	1.0	1	0	1.0	0	205	0	0	0	unknown
2	1	4	18	68798	2517	0.7461759046418592	0	1.0	1022.6830369792877	0.0			0	1.0	1	0	1.0	0	206	0	0	0	unknown
2	1	4	19	28452	6504	0.7462221913738176	0	1.0	893.4636280173437	0.0			0	1.0	1	0	1.0	0	207	0	0	0	unknown
2	1	4	20	71928	3548	0.7463147857924923	0	1.0	1305.6640919821803	0.0			0	1.0	1	0	1.0	0	208	0	0	0	unknown
2	1	4	21	8951	6399	0.7463610790437087	0	1.0	1322.7987179998308	0.0			0	1.0	1	0	1.0	0	209	0	0	0	unknown
2	1	4	22	12494	3095	0.7464073738083243	0	1.0	1304.0472920110915	0.0			0	1.0	1	0	1.0	0	210	0	0	0	unknown
2	1	4	23	30526	9021	0.7464536646148189	0	1.0	1641.5071530209389	0.0			0	1.0	1	0	1.0	0	211	0	0	0	unknown
2	1	4	24	33457	9121	0.74649996496737	0	1.0	1932.6519999885927	0.0			0	1.0	1	0	1.0	0	212	0	0	0	unknown
2	1	4	25	8579	7852	0.7465462506515905	1	1.0	943.6549399979411	0.0	30.0		1	1.0	0	1	2.0	0	213	0	0	0	unknown
2	1	4	26	47020	1108	0.746592547162436	1	1.0	1022.7268129820004	0.0	109.0		1	1.0	0	1	2.0	0	214	0	0	0	unknown
2	1	4	27	66800	8441	0.7466388494940474	0	1.0	1218.61930101295	0.0			0	1.0	1	0	1.0	0	215	0	0	0	unknown
2	1	4	28	64704	9826	0.7466851385543122	0	1.0	1240.1799590152223	0.0			0	1.0	1	0	1.0	0	216	0	0	0	unknown
2	1	4	29	24485	7559	0.74673143052496	0	1.0	1414.5126180083023	0.0			0	1.0	1	0	1.0	0	217	0	0	0	unknown
2	1	4	30	23291	2880	0.7468240227317438	0	1.0	1402.217978000408	0.0			0	1.0	1	0	1.0	0	218	0	0	0	unknown
2	1	4	31	68986	9949	0.746870316681452	0	1.0	1289.4002399989404	0.0			0	1.0	1	0	1.0	0	219	0	0	0	unknown
2	1	4	32	54961	7441	0.7469166121445596	1	1.0	934.2494139855261	0.0	196.0		1	1.0	0	1	2.0	0	220	0	0	0	unknown
2	1	4	33	63243	4751	0.7469628961989656	0	1.0	1093.2392310060095	0.0			0	1.0	1	0	1.0	0	221	0	0	0	unknown
2	1	4	34	3103	5679	0.7470091928262264	0	1.0	1231.6062019963283	0.0			0	1.0	1	0	1.0	0	222	0	0	0	unknown
2	1	4	35	59677	9865	0.7470554853789508	1	1.0	847.6160310092382	0.0	133.0		1	1.0	0	1	2.0	0	223	0	0	0	unknown
2	1	4	36	3321	1645	0.7471017849165946	0	1.0	931.9103290035856	0.0			0	1.0	1	0	1.0	0	224	0	0	0	unknown
2	1	4	37	72375	1266	0.7471479856176301	1	1.0	1078.0931029876228	0.0	92.0		1	1.0	0	1	2.0	0	225	0	0	0	unknown
2	1	4	38	7461	1549	0.7471942801494151	0	1.0	839.6685309999156	0.0			0	1.0	1	0	1.0	0	226	0	0	0	unknown
2	1	4	39	69020	4229	0.7472405676962807	1	1.0	1688.3453210175503	0.0	98.0		1	1.0	0	1	2.0	0	227	0	0	0	unknown
2	1	4	40	55369	9562	0.7472868618788197	0	1.0	2016.2684870010708	0.0			0	1.0	1	0	1.0	0	228	0	0	0	unknown
2	1	4	41	31414	6187	0.7473794481484219	0	1.0	1477.890820999164	0.0			0	1.0	1	0	1.0	0	229	0	0	0	unknown
2	1	4	42	19537	8748	0.7474257551366463	1	0.0	3219.6552320092446	1.0	187.0		1	0.0	1	2	1.0	0	230	0	0	0	unknown
2	1	4	43	14599	8374	0.747472044895403	0	1.0	2829.3948030041065	0.0			0	1.0	1	0	1.0	0	231	0	0	0	unknown
2	1	4	44	42172	559	0.7475183359347283	0	1.0	922.9700430005324	0.0			0	1.0	1	0	1.0	0	232	1	0	1	new
2	1	4	45	5603	53	0.7475646326784045	0	1.0	993.040989007568	0.0			0	1.0	1	0	1.0	0	233	1	0	1	new
2	1	4	46	26181	8043	0.7476109266281127	0	1.0	1215.8709520008415	0.0			0	1.0	1	0	1.0	0	234	0	0	0	unknown
2	1	4	47	42397	8972	0.7476572194136679	0	1.0	1023.2559669821056	0.0			0	1.0	1	0	1.0	0	235	0	0	0	unknown
2	1	4	48	32236	5860	0.7477035103365778	0	1.0	1091.7559079825878	0.0			0	1.0	1	0	1.0	0	236	0	0	0	unknown
2	1	4	49	3218	3756	0.7477498075459152	0	1.0	1280.8344810036942	0.0			0	1.0	1	0	1.0	0	237	0	0	0	unknown
2	1	4	50	61161	4734	0.747796103125438	0	1.0	1202.0581529941408	0.0			0	1.0	1	0	1.0	0	238	0	0	0	unknown
2	1	4	51	43411	8985	0.7478423960274085	0	0.0	1502.479142975062	0.0			0	0.0	0	1	2.0	0	239	0	0	0	unknown
2	1	4	52	40454	5862	0.7478886883473023	0	1.0	1017.9276809794828	0.0			0	1.0	1	0	1.0	0	240	0	0	0	unknown
2	1	4	53	62591	1681	0.7479812749661505	0	1.0	1029.8280789866112	0.0			0	1.0	1	0	1.0	0	241	0	0	0	unknown
2	1	4	54	8827	8054	0.7480275747366248	1	1.0	1405.3321329993196	0.0	100.0		1	1.0	0	1	2.0	0	242	0	0	0	unknown
2	1	4	55	37274	1983	0.748073867871426	0	1.0	889.9224670021794	0.0			0	1.0	1	0	1.0	0	243	0	0	0	unknown
2	1	4	56	63441	7973	0.7481201613554731	0	1.0	1238.8245280017145	0.0			0	1.0	1	0	1.0	0	244	0	0	0	unknown
2	1	4	57	17065	2469	0.748166449368	0	1.0	1232.6909620023798	0.0			0	1.0	1	0	1.0	0	245	0	0	0	unknown
2	1	4	58	21602	265	0.7482127526309341	0	1.0	1502.400551980827	0.0			0	1.0	1	0	1.0	0	246	1	0	1	new
2	1	4	59	62303	860	0.7482590451836585	0	1.0	1523.8453409983777	0.0			0	1.0	1	0	1.0	0	247	1	0	1	new
2	1	4	60	23658	3951	0.748305331566371	0	1.0	1250.5758970219176	0.0			0	1.0	1	0	1.0	0	248	0	0	0	unknown
2	1	4	61	53955	3444	0.7483516343636438	1	1.0	858.2580880029126	0.0	167.0		1	1.0	0	1	2.0	0	249	0	0	0	unknown
2	1	4	62	5302	45	0.7483979249373078	0	1.0	730.131345015252	0.0			0	1.0	1	0	1.0	0	250	1	0	1	new
2	1	5	1	15493	187	0.7512180471094325	0	1.0	1564.8447719868273	0.0			0	1.0	1	0	1.0	0	251	1	0	1	new
2	1	5	2	19580	6960	0.7512643416412174	0	1.0	1277.343647001544	0.0			0	1.0	1	0	1.0	0	252	0	0	0	unknown
2	1	5	3	46107	9857	0.7513106336118653	0	1.0	1383.9499370078556	0.0			0	1.0	1	0	1.0	0	253	0	0	0	unknown
2	1	5	4	18795	9133	0.7513569380389526	0	1.0	1863.935343979392	0.0			0	1.0	1	0	1.0	0	254	0	0	0	unknown
2	1	5	5	66864	8620	0.7514032301260158	0	1.0	1675.8393950003665	0.0			0	1.0	1	0	1.0	0	255	0	0	0	unknown
2	1	5	6	25288	323	0.7514495241921395	0	1.0	1211.0014299978502	0.0			0	1.0	1	0	1.0	0	256	1	0	1	new
2	1	5	7	24928	7974	0.7514958136016502	0	1.0	1234.5212779764552	0.0			0	1.0	1	0	1.0	0	257	0	0	0	unknown
2	1	5	8	72813	3060	0.7515421059215441	0	1.0	1482.5826479936948	0.0			0	1.0	1	0	1.0	0	258	0	0	0	unknown
2	1	5	9	67261	3271	0.7515883941669017	0	1.0	1265.0094639975575	0.0			0	1.0	1	0	1.0	0	259	0	0	0	unknown
2	1	5	10	16931	5081	0.751634704764001	0	1.0	1467.4278640013652	0.0			0	1.0	1	0	1.0	0	260	0	0	0	unknown
2	1	5	11	37674	4741	0.7517272930126637	0	1.0	1101.7736560024787	0.0			0	1.0	1	0	1.0	0	261	0	0	0	unknown
2	1	5	12	59591	1085	0.7517735691508278	0	1.0	1181.8911049922463	0.0			0	1.0	1	0	1.0	0	262	0	0	0	unknown
2	1	5	13	28556	6570	0.7518198628677055	0	1.0	1028.2586840039585	0.0			0	1.0	1	0	1.0	0	263	0	0	0	unknown
2	1	5	14	61161	4734	0.7518661582143977	1				25.0		1		0	0		0	264	0	0	0	unknown
2	1	5	15	21602	265	0.7519124486716464	1	1.0	1153.5371349891648	0.0	18.0		1	1.0	0	1	2.0	0	265	1	0	2	easy
2	1	5	16	23617	2980	0.7519587513525038	1	1.0	1137.3750719940288	0.0	116.0	119.0	1	1.0	0	1	2.0	0	266	0	0	0	unknown
2	1	5	17	44744	6150	0.7520050370367243	0	1.0	1004.152441979386	0.0			0	1.0	1	0	1.0	0	267	0	0	0	unknown
2	1	5	18	6559	66	0.7520513350609689	0	1.0	1402.6928539969958	0.0			0	1.0	1	0	1.0	0	268	1	0	1	new
2	1	5	19	57313	5550	0.7520976359955966	0	1.0	2247.9095429880545	0.0			0	1.0	1	0	1.0	0	269	0	0	0	unknown
2	1	5	20	56852	6106	0.7521439201664178	0	1.0	1375.8140369900502	0.0			0	1.0	1	0	1.0	0	270	0	0	0	unknown
2	1	5	21	63441	7973	0.7521901233121752	1	1.0	867.2768249816727	0.0	26.0		1	1.0	0	1	2.0	0	271	0	0	0	unknown
2	1	5	22	69452	4401	0.7522364193573594	0	1.0	1177.9380149964709	0.0			0	1.0	1	0	1.0	0	272	0	0	0	unknown
2	1	5	23	40414	2727	0.7523290071403607	0	1.0	1381.5736809920052	0.0			0	1.0	1	0	1.0	0	273	0	0	0	unknown
2	1	5	24	33150	6036	0.7523753080749884	0	1.0	1079.9750720034351	0.0			0	1.0	1	0	1.0	0	274	0	0	0	unknown
2	1	5	25	71135	7741	0.7524215970188379	0	1.0	1433.13535201014	0.0			0	1.0	1	0	1.0	0	275	0	0	0	unknown
2	1	5	26	62760	2387	0.7524678870104253	0	1.0	1429.8488110071048	0.0			0	1.0	1	0	1.0	0	276	0	0	0	unknown
2	1	5	27	36246	7130	0.7525141783989965	0	1.0	1484.1790209757164	0.0			0	1.0	1	0	1.0	0	277	0	0	0	unknown
2	1	5	28	53457	6647	0.7525604808470234	0	1.0	1363.1457709998358	0.0			0	1.0	1	0	1.0	0	278	0	0	0	unknown
2	1	5	29	30615	5925	0.7526067759608849	1	1.0	835.3339220047928	0.0	118.0		1	1.0	0	1	2.0	0	279	0	0	0	unknown
2	1	5	30	7757	3686	0.7526530583854764	0	1.0	1204.4918210012838	0.0			0	1.0	1	0	1.0	0	280	0	0	0	unknown
2	1	5	31	70336	970	0.752699361066334	1	1.0	1432.4260779831093	0.0	153.0		1	1.0	0	1	2.0	0	281	1	0	2	easy
2	1	5	32	16724	201	0.7527456551324576	0	1.0	1106.8113029759843	0.0			0	1.0	1	0	1.0	0	282	1	0	1	new
2	1	5	33	39117	4687	0.7527919434942305	1	1.0	1463.8716179761104	0.0	91.0		1	1.0	0	1	2.0	0	283	0	0	0	unknown
2	1	5	34	62760	2387	0.7528845302294939	1	1.0	852.1442149940412	0.0	7.0		1	1.0	0	1	2.0	0	284	0	0	0	unknown
2	1	5	35	71846	6349	0.7529308276716619	0	1.0	1283.5820050095208	0.0			0	1.0	1	0	1.0	0	285	0	0	0	unknown
2	1	5	36	51302	3457	0.7529771169647574	1	0.0	1642.4893380026333	0.0	85.0		1	0.0	1	0	1.0	0	286	0	0	0	unknown
2	1	5	37	65647	5237	0.7530234194127842	0	1.0	1237.3334909789264	0.0			0	1.0	1	0	1.0	0	287	0	0	0	unknown
2	1	5	38	65647	5237	0.7530697159236297	1	1.0	781.1544790165498	0.0	0.0		1	1.0	0	1	2.0	0	288	0	0	0	unknown
2	1	5	39	69581	5169	0.7531160055659711	1	1.0	1015.0080250168684	0.0	180.0	222.0	1	1.0	0	1	2.0	0	289	0	0	0	unknown
2	1	5	40	39365	2284	0.7531623063841834	0	1.0	1979.7233030258208	0.0			0	1.0	1	0	1.0	0	290	0	0	0	unknown
2	1	5	41	71138	4210	0.7532085904385895	0	1.0	1814.1254320216833	0.0			0	1.0	1	0	1.0	0	291	0	0	0	unknown
2	1	5	42	16517	3597	0.7532548918388783	0	1.0	1339.02623099857	0.0			0	1.0	1	0	1.0	0	292	0	0	0	unknown
2	1	5	43	51438	2768	0.7533474775264039	0	1.0	891.6418269800488	0.0			0	1.0	1	0	1.0	0	293	0	0	0	unknown
2	1	5	44	71528	5714	0.7533937738044187	0	0.0	2205.3249560121913	0.0			0	0.0	0	1	2.0	0	294	0	0	0	unknown
2	1	5	45	8579	7852	0.7534400597214698	1	1.0	832.1781860140619	0.0	81.0	112.0	1	1.0	0	1	2.0	0	295	0	0	0	unknown
2	1	5	46	19000	9788	0.7534862576285377	0	1.0	1341.8533749936614	0.0			0	1.0	1	0	1.0	0	296	0	0	0	unknown
2	1	5	47	4360	9094	0.7535325556527823	0	1.0	1073.6823169863783	0.0			0	1.0	1	0	1.0	0	297	0	0	0	unknown
2	1	5	48	55513	2607	0.7535788544919341	0	1.0	1129.7890659770928	0.0			0	1.0	1	0	1.0	0	298	0	0	0	unknown
2	1	5	49	58631	9272	0.7536251394776627	0	1.0	1486.123223992763	0.0			0	1.0	1	0	1.0	0	299	0	0	0	unknown
2	1	5	50	27733	5192	0.7536714378511533	0	1.0	1346.5743160049897	0.0			0	1.0	1	0	1.0	0	300	0	0	0	unknown
2	1	5	51	51525	7185	0.753717735526152	0	1.0	1373.5097220051102	0.0			0	1.0	1	0	1.0	0	301	0	0	0	unknown
2	1	5	52	21429	6581	0.7537640297086909	0	1.0	1258.588881988544	0.0			0	1.0	1	0	1.0	0	302	0	0	0	unknown
2	1	5	53	8543	1492	0.7538103247061371	0	1.0	1144.8051600018516	0.0			0	1.0	1	0	1.0	0	303	0	0	0	unknown
2	1	5	54	63429	2196	0.7538566201692447	0	1.0	1527.0336479879916	0.0			0	1.0	1	0	1.0	0	304	0	0	0	unknown
2	1	5	55	17769	7998	0.7539491982897742	0	1.0	1534.5422989921644	0.0			0	1.0	1	0	1.0	0	305	0	0	0	unknown
2	1	5	56	40576	531	0.7539955014362931	0	1.0	1144.031715026358	0.0			0	1.0	1	0	1.0	0	306	1	0	1	new
2	1	5	57	54525	6520	0.754041789798066	0	1.0	868.4208090126048	0.0			0	1.0	1	0	1.0	0	307	0	0	0	unknown
2	1	5	58	64532	3898	0.754088090499863	0	1.0	1112.2724169981664	0.0			0	1.0	1	0	1.0	0	308	0	0	0	unknown
2	1	5	59	67244	9743	0.7541343772318214	0	1.0	1043.687060009688	0.0			0	1.0	1	0	1.0	0	309	0	0	0	unknown
2	1	5	60	45884	2430	0.7541806699009612	0	1.0	1647.3361300013491	0.0			0	1.0	1	0	1.0	0	310	0	0	0	unknown
2	1	5	61	3939	3694	0.7542269655968993	1	1.0	804.2507880018093	0.0	214.0		1	1.0	0	1	2.0	0	311	0	0	0	unknown
2	1	5	62	71928	3548	0.754273260012269	1	1.0	1085.246286005713	0.0	103.0		1	1.0	0	1	2.0	0	312	0	0	0	unknown
2	1	5	63	43136	1939	0.7543195536127313	0	1.0	1542.1161580015903	0.0			0	1.0	1	0	1.0	0	313	0	0	0	unknown
2	1	6	1	23874	1129	0.7559354958357289	0	1.0	846.7768909758888	0.0			0	1.0	1	0	1.0	0	314	0	0	0	unknown
2	1	6	2	27685	3996	0.7559817003784701	0	1.0	1183.2763599813916	0.0			0	1.0	1	0	1.0	0	315	0	0	0	unknown
2	1	6	3	15924	5160	0.7560280004981905	0	1.0	1425.981792010134	0.0			0	1.0	1	0	1.0	0	316	0	0	0	unknown
2	1	6	4	39609	2539	0.7560742915375158	0	1.0	1607.7397490153087	0.0			0	1.0	1	0	1.0	0	317	0	0	0	unknown
2	1	6	5	23777	5155	0.756120586534962	0	1.0	1529.7788470052183	0.0			0	1.0	1	0	1.0	0	318	0	0	0	unknown
2	1	6	6	11244	3647	0.7561668710550293	0	1.0	1259.4145459879655	0.0			0	1.0	1	0	1.0	0	319	0	0	0	unknown
2	1	6	7	40495	7233	0.7562131655868142	0	1.0	1683.6440589977428	0.0			0	1.0	1	0	1.0	0	320	0	0	0	unknown
2	1	6	8	27019	5772	0.7562594673363491	1	1.0	1737.9808929981664	0.0	234.0		1	1.0	0	1	2.0	0	321	0	0	0	unknown
2	1	6	9	2436	5761	0.7563057562801986	0	1.0	1104.449932987336	0.0			0	1.0	1	0	1.0	0	322	0	0	0	unknown
2	1	6	10	57143	9964	0.7563520480180159	0	1.0	1437.1216099825688	0.0			0	1.0	1	0	1.0	0	323	0	0	0	unknown
2	1	6	11	46044	3903	0.756398347322829	0	1.0	702.0618130045477	0.0			0	1.0	1	0	1.0	0	324	0	0	0	unknown
2	1	6	12	38398	9657	0.7564446380129083	0	1.0	1180.3458929935005	0.0			0	1.0	1	0	1.0	0	325	0	0	0	unknown
2	1	6	13	29082	1808	0.7565372310345992	0	1.0	1502.7649399999063	0.0			0	1.0	1	0	1.0	0	326	0	0	0	unknown
2	1	6	14	51732	3036	0.7565835239365696	0	1.0	1343.6659759900067	0.0			0	1.0	1	0	1.0	0	327	0	0	0	unknown
2	1	6	15	62791	9484	0.7566298117162659	0	1.0	1104.5816580008247	0.0			0	1.0	1	0	1.0	0	328	0	0	0	unknown
2	1	6	16	5667	4025	0.7566761105554178	1	1.0	1654.7215809987392	0.0	155.0	156.0	1	1.0	0	1	2.0	0	329	0	0	0	unknown
2	1	6	17	20254	6068	0.7567224069498479	0	1.0	1178.7758159916848	0.0			0	1.0	1	0	1.0	0	330	0	0	0	unknown
2	1	6	18	36706	5418	0.7567687024129554	0	1.0	1522.6166610082144	0.0			0	1.0	1	0	1.0	0	331	0	0	0	unknown
2	1	6	19	72373	4005	0.7568149976432323	0	1.0	1346.5105739887804	0.0			0	1.0	1	0	1.0	0	332	0	0	0	unknown
2	1	6	20	37442	9960	0.7568612898467107	0	1.0	1361.5728949953336	0.0			0	1.0	1	0	1.0	0	333	0	0	0	unknown
2	1	6	21	9433	6726	0.7569075778592377	1	1.0	1352.137973997742	0.0	193.0		1	1.0	0	1	2.0	0	334	0	0	0	unknown
2	1	6	22	9364	2504	0.7569538799580185	0	1.0	1301.1791760218327	0.0			0	1.0	1	0	1.0	0	335	0	0	0	unknown
2	1	6	23	72273	2735	0.757046464481391	0	1.0	1104.3291699897964	0.0			0	1.0	1	0	1.0	0	336	0	0	0	unknown
2	1	6	24	32778	8174	0.7570927599444985	0	1.0	1437.6917520130519	0.0			0	1.0	1	0	1.0	0	337	0	0	0	unknown
2	1	6	25	36508	7260	0.7571390549419447	0	1.0	1327.6939220086203	0.0			0	1.0	1	0	1.0	0	338	0	0	0	unknown
2	1	6	26	34146	5558	0.7571853515692055	0	1.0	955.8983150054701	0.0			0	1.0	1	0	1.0	0	339	0	0	0	unknown
2	1	6	27	52853	7780	0.7572316419100388	0	1.0	1203.4630849957466	0.0			0	1.0	1	0	1.0	0	340	0	0	0	unknown
2	1	6	28	12890	1014	0.7572778430767357	0	1.0	1145.657839020714	0.0			0	1.0	1	0	1.0	0	341	0	0	0	unknown
2	1	6	29	3100	3638	0.7573241319041699	0	1.0	1591.2804899853654	0.0			0	1.0	1	0	1.0	0	342	0	0	0	unknown
2	1	6	30	59833	6843	0.7573704236419871	1	1.0	822.6496010029223	0.0	240.0		1	1.0	0	1	2.0	0	343	0	0	0	unknown
2	1	6	31	64125	9313	0.7574167209677398	0	0.0	1212.598092999542	0.0			0	0.0	0	1	2.0	0	344	0	0	0	unknown
2	1	6	32	61808	1702	0.7574630086310207	0	1.0	1107.822252000915	0.0			0	1.0	1	0	1.0	0	345	0	0	0	unknown
2	1	6	33	45596	616	0.7575093045597895	0	1.0	1168.589350010734	0.0			0	1.0	1	0	1.0	0	346	1	1	1	new
2	1	6	34	2356	3640	0.7575556032825261	0	1.0	1206.1573830142152	0.0			0	1.0	1	0	1.0	0	347	0	0	0	unknown
2	1	6	35	33412	8318	0.7576481862924993	0	1.0	1848.1429949752053	0.0			0	1.0	1	0	1.0	0	348	0	0	0	unknown
2	1	6	36	28605	9017	0.7576944875763729	0	1.0	1091.0800299898256	0.0			0	1.0	1	0	1.0	0	349	0	0	0	unknown
2	1	6	37	57297	9347	0.7577407743083313	0	1.0	1454.0861870045771	0.0			0	1.0	1	0	1.0	0	350	0	0	0	unknown
2	1	6	38	71597	5238	0.7577870760578662	0	1.0	1155.6703749811277	0.0			0	1.0	1	0	1.0	0	351	0	0	0	unknown
2	1	6	39	39702	6246	0.75783336837776	0	1.0	1503.481752006337	0.0			0	1.0	1	0	1.0	0	352	0	0	0	unknown
2	1	6	40	22340	3194	0.7578796608140692	1	0.0	1559.3735479924362	0.0	158.0		1	0.0	1	0	1.0	0	353	0	0	0	unknown
2	1	6	41	53053	727	0.757925949874334	1	1.0	921.8011700140778	0.0	297.0		1	1.0	0	1	2.0	0	354	1	1	2	easy
2	1	6	42	58027	6311	0.7579722530208528	0	1.0	1187.8729200107043	0.0			0	1.0	1	0	1.0	0	355	0	0	0	unknown
2	1	6	43	41273	8935	0.7580185461556538	1	0.0	1586.8946090049576	0.0	189.0		1	0.0	1	0	1.0	0	356	0	0	0	unknown
2	1	6	44	9918	116	0.7581111298641189	0	0.0	1806.5402820066083	0.0			0	0.0	0	1	2.0	0	357	1	0	1	new
2	1	6	45	38308	2297	0.7581574287032709	0	1.0	1076.6859859868418	0.0			0	1.0	1	0	1.0	0	358	0	0	0	unknown
2	1	6	46	8849	3293	0.758203723700717	0	1.0	1188.238563016057	0.0			0	1.0	1	0	1.0	0	359	0	0	0	unknown
2	1	6	47	26599	351	0.758250021492131	0	1.0	1874.5919599896297	0.0			0	1.0	1	0	1.0	0	360	1	0	1	new
2	1	6	48	50289	2336	0.7582963033346459	0	1.0	1423.771055007819	0.0			0	1.0	1	0	1.0	0	361	0	0	0	unknown
2	1	6	49	21602	265	0.7583426050841808	1	1.0	1031.4660849981008	0.0	96.0	115.0	1	1.0	0	1	2.0	0	362	1	0	3	easy
2	1	6	50	68986	9949	0.7583888927474617	1	1.0	2369.110355997691	0.0	143.0		1	1.0	0	1	2.0	0	363	0	0	0	unknown
2	1	6	51	36706	5418	0.7584351894911378	1	1.0	1053.7395550054498	0.0	32.0		1	1.0	0	1	2.0	0	364	0	0	0	unknown
2	1	6	52	19769	6017	0.758481394033879	0	1.0	1379.9734999774955	0.0			0	1.0	1	0	1.0	0	365	0	0	0	unknown
2	1	6	53	47247	8280	0.7585739773930981	0	1.0	1402.6651780004613	0.0			0	1.0	1	0	1.0	0	366	0	0	0	unknown
2	1	6	54	27101	9965	0.7586202746024355	0	1.0	1331.104219018016	0.0			0	1.0	1	0	1.0	0	367	0	0	0	unknown
2	1	6	55	50120	8516	0.7586665661074221	0	1.0	1142.8027209767606	0.0			0	1.0	1	0	1.0	0	368	0	0	0	unknown
2	1	6	56	8827	8054	0.7587128569139167	1	1.0	817.390282987617	0.0	126.0	227.0	1	1.0	0	1	2.0	0	369	0	0	0	unknown
2	1	6	57	72375	1266	0.7587591507472097	1	1.0	1164.917102025356	0.0	144.0	237.0	1	1.0	0	1	2.0	0	370	0	0	0	unknown
2	1	6	58	13368	8093	0.7588054520310834	0	1.0	2552.6949550257996	1.0			0	1.0	1	1	1.0	0	371	0	0	0	unknown
2	1	6	59	11832	8498	0.7588517469121143	0	1.0	1743.061615008628	0.0			0	1.0	1	0	1.0	0	372	0	0	0	unknown
2	1	6	60	17065	2469	0.7588980396976694	1	1.0	2055.968367989408	0.0	127.0		1	1.0	0	1	2.0	0	373	0	0	0	unknown
2	1	6	61	60306	830	0.7589443258475512	0	1.0	1033.2674740056973	0.0			0	1.0	1	0	1.0	0	374	1	0	1	new
2	1	6	62	6573	6274	0.7589906258508563	1	1.0	1487.8839059965685	0.0	224.0		1	1.0	0	1	2.0	0	375	0	0	0	unknown
2	1	7	1	32778	8174	0.7605667359894142	1	1.0	1483.4510549844708	0.0	38.0		1	1.0	0	1	2.0	0	376	0	0	0	unknown
2	1	7	2	63385	4615	0.7606130372732877	0	1.0	1669.5865649962795	0.0			0	1.0	1	0	1.0	0	377	0	0	0	unknown
2	1	7	3	52028	2736	0.7606593172531574	0	1.0	1337.666295003146	0.0			0	1.0	1	0	1.0	0	378	0	0	0	unknown
2	1	7	4	64046	5200	0.7607056190026924	1	1.0	1257.961832016008	0.0	291.0		1	1.0	0	1	2.0	0	379	0	0	0	unknown
2	1	7	5	334	2330	0.7607519066659733	0	1.0	1275.8986350090709	0.0			0	1.0	1	0	1.0	0	380	0	0	0	unknown
2	1	7	6	2790	4470	0.7607982138870283	0	1.0	1435.613331006607	0.0			0	1.0	1	0	1.0	0	381	0	0	0	unknown
2	1	7	7	59796	4068	0.7608445021323859	1	1.0	1237.1009989874435	0.0	304.0		1	1.0	0	1	2.0	0	382	0	0	0	unknown
2	1	7	8	30788	5858	0.7608908168040215	0	1.0	1306.5599540132096	0.0			0	1.0	1	0	1.0	0	383	0	0	0	unknown
2	1	7	9	56366	1538	0.7609370873542503	1	1.0	2304.3947510013822	0.0	300.0		1	1.0	0	1	2.0	0	384	0	0	0	unknown
2	1	7	10	40903	6560	0.7610296806087717	0	1.0	1110.2858329832088	0.0			0	1.0	1	0	1.0	0	385	0	0	0	unknown
2	1	7	11	30907	8283	0.7610760104143992	0	1.0	1472.4366170121357	0.0			0	1.0	1	0	1.0	0	386	0	0	0	unknown
2	1	7	12	15924	5160	0.7611222587293013	1	1.0	935.4834030091296	0.0	70.0		1	1.0	0	1	2.0	0	387	0	0	0	unknown
2	1	7	13	8849	3293	0.7611686071613804	1	1.0	1016.5816599910612	0.0	28.0		1	1.0	0	1	2.0	0	388	0	0	0	unknown
2	1	7	14	8080	5965	0.7612148551270365	1	1.0	1052.9930109914856	0.0	218.0		1	1.0	0	1	2.0	0	389	0	0	0	unknown
2	1	7	15	48935	2408	0.76126119249966	0	1.0	1337.6353649946395	0.0			0	1.0	1	0	1.0	0	390	0	0	0	unknown
2	1	7	16	4988	9667	0.7613074387190863	1	1.0	947.9400540003552	0.0	214.0		1	1.0	0	1	2.0	0	391	0	0	0	unknown
2	1	7	17	31820	1866	0.761353789595887	1	1.0	948.0064090166705	0.0	222.0		1	1.0	0	1	2.0	0	392	0	0	0	unknown
2	1	7	18	58051	3342	0.7614000235917046	0	1.0	925.1909099984914	0.0			0	1.0	1	0	1.0	0	393	0	0	0	unknown
2	1	7	19	12890	1014	0.7614463918143883	1	1.0	1109.8903529928064	0.0	52.0		1	1.0	0	1	2.0	0	394	0	0	0	unknown
2	1	7	20	10691	7951	0.7615389820421113	0	1.0	1336.761950980872	0.0			0	1.0	1	0	1.0	0	395	0	0	0	unknown
2	1	7	21	63107	4784	0.7615852003218606	0	1.0	1237.9556449886877	0.0			0	1.0	1	0	1.0	0	396	0	0	0	unknown
2	1	7	22	49538	5660	0.7616315073100849	0	1.0	1490.316553012235	0.0			0	1.0	1	0	1.0	0	397	0	0	0	unknown
2	1	7	23	42576	8315	0.761677799746394	0	1.0	1320.4352890024893	0.0			0	1.0	1	0	1.0	0	398	0	0	0	unknown
2	1	7	24	30171	1098	0.7617241042898967	0	1.0	1602.0120659959503	0.0			0	1.0	1	0	1.0	0	399	0	0	0	unknown
2	1	7	25	43488	1431	0.7617703779833391	0	1.0	1518.816085997969	0.0			0	1.0	1	0	1.0	0	400	0	0	0	unknown
2	1	7	26	30788	5858	0.76181668729987	1	1.0	1223.0953050020617	0.0	17.0		1	1.0	0	1	2.0	0	401	0	0	0	unknown
2	1	7	27	1564	2848	0.7618629733333364	0	1.0	983.748297992861	0.0			0	1.0	1	0	1.0	0	402	0	0	0	unknown
2	1	7	28	4787	36	0.7619092729873955	0	1.0	1233.8401619927026	0.0			0	1.0	1	0	1.0	0	403	1	0	1	new
2	1	7	29	62504	6866	0.7619555578567087	0	1.0	1550.294701999519	0.0			0	1.0	1	0	1.0	0	404	0	0	0	unknown
2	1	7	30	30171	1098	0.7620018703164532	1	1.0	735.4821840126533	0.0	5.0		1	1.0	0	1	2.0	0	405	0	0	0	unknown
2	1	7	31	42576	8315	0.7620481509948149	1	1.0	838.3358640130609	0.0	7.0		1	1.0	0	1	2.0	0	406	0	0	0	unknown
2	1	7	32	1204	5663	0.7620944462250918	0	1.0	825.6459929980338	0.0			0	1.0	1	0	1.0	0	407	0	0	0	unknown
2	1	7	33	51843	2218	0.7621407356346026	0	1.0	1110.623817978194	0.0			0	1.0	1	0	1.0	0	408	0	0	0	unknown
2	1	7	34	30788	5858	0.7622333264444023	1	1.0	737.4191209964919	0.0	7.0	25.0	1	1.0	0	1	2.0	0	409	0	0	0	unknown
2	1	7	35	58631	9272	0.7622795214410871	1	1.0	936.1348709790035	0.0	110.0		1	1.0	0	1	2.0	0	410	0	0	0	unknown
2	1	7	36	16827	8216	0.7623258129460737	0	1.0	1360.422958008712	0.0			0	1.0	1	0	1.0	0	411	0	0	0	unknown
2	1	7	37	17071	7520	0.7623721123673021	0	1.0	1365.865561994724	0.0			0	1.0	1	0	1.0	0	412	0	0	0	unknown
2	1	7	38	18306	5919	0.7624184051528573	0	1.0	1352.7763989986852	0.0			0	1.0	1	0	1.0	0	413	0	0	0	unknown
2	1	7	39	58514	2451	0.7624646946787834	0	1.0	1302.6129560021216	0.0			0	1.0	1	0	1.0	0	414	0	0	0	unknown
2	1	7	40	52018	9575	0.7625109943328425	0	0.0	1274.133567989338	0.0			0	0.0	0	1	2.0	0	415	0	0	0	unknown
2	1	7	41	334	2330	0.7625572900287806	1	1.0	1036.916321987519	0.0	35.0		1	1.0	0	1	2.0	0	416	0	0	0	unknown
2	1	7	42	29782	7310	0.762603583978489	0	1.0	1069.9436489958316	0.0			0	1.0	1	0	1.0	0	417	0	0	0	unknown
2	1	7	43	47308	8175	0.7626498717581853	0	1.0	1221.8121660116594	0.0			0	1.0	1	0	1.0	0	418	0	0	0	unknown
2	1	7	44	4355	2259	0.7626961766509339	1	1.0	1847.576325002592	0.0	274.0		1	1.0	0	1	2.0	0	419	0	0	0	unknown
2	1	7	45	69452	4401	0.7627424577949568	1	1.0	850.3772389958611	0.0	147.0		1	1.0	0	1	2.0	0	420	0	0	0	unknown
2	1	7	46	37094	3902	0.7628350484883412	1	0.0	1079.9353650072587	0.0	396.0		1	0.0	1	0	1.0	0	421	0	0	0	unknown
2	1	7	47	62644	9335	0.7628813489573076	0	1.0	1006.6124099830632	0.0			0	1.0	1	0	1.0	0	422	0	0	0	unknown
2	1	7	48	43468	2760	0.7629276380175724	0	1.0	1214.9440410139505	0.0			0	1.0	1	0	1.0	0	423	0	0	0	unknown
2	1	7	49	19769	6017	0.762973936740309	1	1.0	1247.3863099876323	0.0	58.0		1	1.0	0	1	2.0	0	424	0	0	0	unknown
2	1	7	50	1012	8170	0.7630202234722673	0	1.0	1381.14466497791	0.0			0	1.0	1	0	1.0	0	425	0	0	0	unknown
2	1	7	51	2062	5262	0.7630665197502821	0	1.0	1409.583068016218	0.0			0	1.0	1	0	1.0	0	426	0	0	0	unknown
2	1	7	52	2062	5262	0.7631128174252808	1	1.0	714.0701019961853	0.0	0.0		1	1.0	0	1	2.0	0	427	0	0	0	unknown
2	1	7	53	50289	2336	0.7631591169629245	1	1.0	841.4912300067954	0.0	66.0		1	1.0	0	1	2.0	0	428	0	0	0	unknown
2	1	7	54	63347	3862	0.763205402647145	0	1.0	1331.2343299912754	0.0			0	1.0	1	0	1.0	0	429	0	0	0	unknown
2	1	7	55	39711	8482	0.7632979926420375	0	0.0	1092.8643440129235	0.0			0	0.0	0	1	2.0	0	430	0	0	0	unknown
2	1	7	56	697	9525	0.7633442890364676	0	1.0	987.6458889921197	0.0			0	1.0	2	0	1.0	0	431	0	0	0	unknown
2	1	7	57	30823	3450	0.7633905847324058	0	1.0	1317.280399001902	0.0			0	1.0	1	0	1.0	0	432	0	0	0	unknown
2	1	7	58	60333	6692	0.7634368785656988	1	1.0	1273.2644850038923	0.0	254.0		1	1.0	0	1	2.0	0	433	0	0	0	unknown
2	1	7	59	19182	230	0.7634831721661612	0	1.0	1578.1556099827867	0.0			0	1.0	1	0	1.0	0	434	1	0	1	new
2	1	7	60	30403	5967	0.7635293636703863	0	1.0	1453.4781360125635	0.0			0	1.0	1	0	1.0	0	435	0	0	0	unknown
2	1	7	61	22273	7856	0.7635756684467196	0	1.0	1003.2203720184044	0.0			0	1.0	1	0	1.0	0	436	0	0	0	unknown
2	1	7	62	12025	8586	0.7636219598352909	0	0.0	1643.3909090119414	0.0			0	0.0	0	1	2.0	0	437	0	0	0	unknown
2	1	7	63	36246	7130	0.7636682468000799	1	1.0	920.0206929817796	0.0	160.0		1	1.0	0	1	2.0	0	438	0	0	0	unknown
2	1	8	1	48562	8109	0.7651929655112326	0	1.0	1136.5048789884895	0.0			0	1.0	1	0	1.0	0	439	0	0	0	unknown
2	1	8	2	6559	66	0.7652393244206905	1	1.0	1234.1488359961659	0.0	171.0		1	1.0	0	1	2.0	0	440	1	0	2	easy
2	1	8	3	72081	992	0.7652855551568791	0	1.0	1062.2555630106945	0.0			0	1.0	1	0	1.0	0	441	1	0	1	new
2	1	8	4	47706	2986	0.7653319201199337	0	1.0	1506.3678210135547	0.0			0	1.0	1	0	1.0	0	442	0	0	0	unknown
2	1	8	5	37740	1192	0.7653781371191143	0	1.0	1411.4630549738647	0.0			0	1.0	1	0	1.0	0	443	0	0	0	unknown
2	1	8	6	7122	5568	0.765424519078806	0	1.0	1382.555032003438	0.0			0	1.0	1	0	1.0	0	444	0	0	0	unknown
2	1	8	7	46392	2203	0.7654707244364544	0	1.0	1238.694273022702	0.0			0	1.0	1	0	1.0	0	445	0	0	0	unknown
2	1	8	8	51525	7185	0.7655171123333275	1	1.0	1295.1939610065892	0.0	144.0		1	1.0	0	1	2.0	0	446	0	0	0	unknown
2	1	8	9	56782	4001	0.7655633121030405	0	1.0	1206.3588809978683	0.0			0	1.0	1	0	1.0	0	447	0	0	0	unknown
2	1	8	10	33116	4285	0.7656559054739773	1	1.0	2790.203336015111	0.0	261.0		1	1.0	0	1	2.0	0	448	0	0	0	unknown
2	1	8	11	36068	475	0.7657023085048422	0	1.0	1335.9777729783673	0.0			0	1.0	1	0	1.0	0	449	1	0	1	new
2	1	8	12	30533	7336	0.7657484974479302	1	1.0	1090.0570510129908	0.0	323.0		1	1.0	0	1	2.0	0	450	0	0	0	unknown
2	1	8	13	64102	1800	0.7657948901178315	0	1.0	840.9412019827869	0.0			0	1.0	1	0	1.0	0	451	0	0	0	unknown
2	1	8	14	33457	9121	0.7658410822041332	1	1.0	821.9364210090134	0.0	239.0		1	1.0	0	1	2.0	0	452	0	0	0	unknown
2	1	8	15	65028	7428	0.7658874884946271	0	1.0	935.5482120008672	0.0			0	1.0	1	0	1.0	0	453	0	0	0	unknown
2	1	8	16	1204	5663	0.7659335768548771	1	1.0	1217.1349469863344	0.0	46.0		1	1.0	0	1	2.0	0	454	0	0	0	unknown
2	1	8	17	65459	6579	0.7659798774402587	0	1.0	1068.7105009856168	0.0			0	1.0	1	0	1.0	0	455	0	0	0	unknown
2	1	8	18	38662	7917	0.766026163008064	0	1.0	1739.386009023292	0.0			0	1.0	1	0	1.0	0	456	0	0	0	unknown
2	1	8	19	3218	3756	0.7660724509041756	1	1.0	1218.2247450109571	0.0	219.0		1	1.0	0	1	2.0	0	457	0	0	0	unknown
2	1	8	20	56852	6106	0.7661650482332333	1	1.0	878.1286629964596	0.0	187.0		1	1.0	0	1	2.0	0	458	0	0	0	unknown
2	1	8	21	19324	2186	0.7662113319383934	0	1.0	1391.8314119800923	0.0			0	1.0	1	0	1.0	0	459	0	0	0	unknown
2	1	8	22	63385	4615	0.7662576290313154	1	1.0	950.3122550086118	0.0	82.0		1	1.0	0	1	2.0	0	460	0	0	0	unknown
2	1	8	23	14245	4306	0.7663039288017898	0	1.0	1423.0726040259467	0.0			0	1.0	1	0	1.0	0	461	0	0	0	unknown
2	1	8	24	8762	5523	0.766350216581486	0	1.0	944.0082070068456	0.0			0	1.0	1	0	1.0	0	462	0	0	0	unknown
2	1	8	25	24928	7974	0.7663965175161138	1	1.0	1134.3797419976909	0.0	205.0		1	1.0	0	1	2.0	0	463	0	0	0	unknown
2	1	8	26	5149	1196	0.7664428025018423	0	1.0	1116.7232730076648	0.0			0	1.0	1	0	1.0	0	464	0	0	0	unknown
2	1	8	27	70801	9718	0.7664890988962724	1	1.0	1584.3767620099243	0.0	317.0		1	1.0	0	1	2.0	0	465	0	0	0	unknown
2	1	8	28	58219	9244	0.7665354006458073	0	1.0	1089.6566289884504	0.0			0	1.0	1	0	1.0	0	466	0	0	0	unknown
2	1	8	29	47454	2604	0.7665816880762577	0	1.0	866.6443299734965	0.0			0	1.0	1	0	1.0	0	467	0	0	0	unknown
2	1	8	30	38180	4793	0.7666279897093772	0	1.0	1855.4830320063047	0.0			0	1.0	1	0	1.0	0	468	0	0	0	unknown
2	1	8	31	71754	988	0.7667205807520076	0	1.0	1423.8675920059904	0.0			0	1.0	1	0	1.0	0	469	1	0	1	new
2	1	8	32	61295	5894	0.7667668681824579	0	1.0	1166.7454530252144	0.0			0	1.0	1	0	1.0	0	470	0	0	0	unknown
2	1	8	33	40793	1732	0.7668131603859364	0	1.0	1210.3509189910255	0.0			0	1.0	1	0	1.0	0	471	0	0	0	unknown
2	1	8	34	34743	6066	0.7668594572460278	0	1.0	1717.370918020606	0.0			0	1.0	1	0	1.0	0	472	0	0	0	unknown
2	1	8	35	52333	7020	0.7669057528255507	0	1.0	1442.707606998738	0.0			0	1.0	1	0	1.0	0	473	0	0	0	unknown
2	1	8	36	49884	9798	0.7669520457275211	0	1.0	1366.8800349987575	0.0			0	1.0	1	0	1.0	0	474	0	0	0	unknown
2	1	8	37	7375	1771	0.7669983427040278	0	1.0	1346.536651981296	0.0			0	1.0	1	0	1.0	0	475	0	0	0	unknown
2	1	8	38	59496	5382	0.7670446296688169	0	1.0	1443.585864995839	0.0			0	1.0	1	0	1.0	0	476	0	0	0	unknown
2	1	8	39	67787	8917	0.7670909281587228	0	1.0	1333.4073639998678	0.0			0	1.0	1	0	1.0	0	477	0	0	0	unknown
2	1	8	40	58027	6311	0.767137222108431	1	1.0	946.7054330161773	0.0	122.0		1	1.0	0	1	2.0	0	478	0	0	0	unknown
2	1	8	41	34931	5514	0.7671835194341838	0	1.0	1136.9181839982048	0.0			0	1.0	1	0	1.0	0	479	0	0	0	unknown
2	1	8	42	7378	3924	0.7672760065179318	0	1.0	1846.6573590121695	0.0			0	1.0	1	0	1.0	0	480	0	0	0	unknown
2	1	8	43	47454	2604	0.7673223009333014	1	1.0	817.755992000457	0.0	13.0		1	1.0	0	1	2.0	0	481	0	0	0	unknown
2	1	8	44	37740	1192	0.7673685927875339	1	1.0	867.1309019846376	0.0	38.0		1	1.0	0	1	2.0	0	482	0	0	0	unknown
2	1	8	45	71011	2755	0.7674148913938552	0	1.0	1085.2758200198875	0.0			0	1.0	1	0	1.0	0	483	0	0	0	unknown
2	1	8	46	58210	9761	0.7674611853435634	0	0.0	1590.925500000594	0.0			0	0.0	0	1	2.0	0	484	0	0	0	unknown
2	1	8	47	26231	1968	0.7675074829021468	0	1.0	1566.450098005589	0.0			0	1.0	1	0	1.0	0	485	0	0	0	unknown
2	1	8	48	24485	7559	0.7675537735922262	1	1.0	903.675795008894	0.0	268.0		1	1.0	0	1	2.0	0	486	0	0	0	unknown
2	1	8	49	56561	1551	0.7676000605570152	0	1.0	1356.3128300011156	0.0			0	1.0	1	0	1.0	0	487	0	0	0	unknown
2	1	8	50	34456	6666	0.7676463571842759	1	1.0	1161.616319004679	0.0	336.0		1	1.0	0	1	2.0	0	488	0	0	0	unknown
2	1	8	51	1012	8170	0.7676926536951214	1	1.0	1132.982326002093	0.0	63.0		1	1.0	0	1	2.0	0	489	0	0	0	unknown
2	1	8	52	3218	3756	0.7677389453165233	1	1.0	960.8933480049018	0.0	32.0	252.0	1	1.0	0	1	2.0	0	490	0	0	0	unknown
2	1	8	53	26499	2262	0.7677852481137961	0	1.0	848.5355870216154	0.0			0	1.0	1	0	1.0	0	491	0	0	0	unknown
2	1	8	54	63107	4784	0.7678315433440729	1	1.0	1068.0997319868763	0.0	95.0		1	1.0	0	1	2.0	0	492	0	0	0	unknown
2	1	8	55	71528	5714	0.76792412775103	1	1.0	2226.425284985453	0.0	198.0		1	1.0	0	1	2.0	0	493	0	0	0	unknown
2	1	8	56	47020	1108	0.767970414715819	1	1.0	884.1008490126113	0.0	279.0	389.0	1	1.0	0	2	2.0	0	494	0	0	0	unknown
2	1	8	57	38118	1224	0.7680167054058983	0	1.0	1844.5904700201936	0.0			0	1.0	1	0	1.0	0	495	0	0	0	unknown
2	1	8	58	14012	9934	0.7680630041286349	0	1.0	1149.3831400002819	0.0			0	1.0	1	0	1.0	0	496	0	0	0	unknown
2	1	8	59	65235	1317	0.7681093036662787	0	1.0	1141.27912800177	0.0			0	1.0	1	0	1.0	0	497	0	0	0	unknown
2	1	8	60	58145	805	0.7681556002935394	0	1.0	956.5530029940419	0.0			0	1.0	1	0	1.0	0	498	1	0	1	new
2	1	8	61	59916	5274	0.7682018853956833	0	1.0	1322.3418220004532	0.0			0	1.0	1	0	1.0	0	499	0	0	0	unknown
2	1	8	62	72265	5350	0.7682481866795569	0	1.0	1188.883322989568	0.0			0	1.0	1	0	1.0	0	500	0	0	0	unknown
2	1	9	1	26499	2262	0.7709047329844906	1	1.0	1283.9618319994768	0.0	9.0		1	1.0	0	1	2.0	0	501	0	0	0	unknown
2	1	9	2	39702	6246	0.7709510454442352	1	1.0	1083.6012540094089	0.0	149.0		1	1.0	0	1	2.0	0	502	0	0	0	unknown
2	1	9	3	58631	9272	0.7709973199525848	1	1.0	809.3739570176695	0.0	92.0	203.0	1	1.0	0	1	2.0	0	503	0	0	0	unknown
2	1	9	4	37674	4741	0.7710436363704501	1	1.0	839.3964800052344	0.0	242.0		1	1.0	0	1	2.0	0	504	0	0	0	unknown
2	1	9	5	11943	145	0.7710899119265378	0	1.0	1334.2503019957803	0.0			0	1.0	1	0	1.0	0	505	1	1	1	new
2	1	9	6	63561	6367	0.7711362204281613	0	1.0	1501.3311569928192	0.0			0	1.0	1	0	1.0	0	506	0	0	0	unknown
2	1	9	7	71928	3548	0.7711825055303052	1	1.0	916.3098419958261	0.0	194.0	298.0	1	1.0	0	1	2.0	0	507	0	0	0	unknown
2	1	9	8	30407	2752	0.7712288092589005	0	1.0	1786.6620809945744	0.0			0	1.0	1	0	1.0	0	508	0	0	0	unknown
2	1	9	9	19182	230	0.7712750923819839	1	1.0	1366.8669920007233	0.0	74.0		1	1.0	0	1	2.0	0	509	1	0	2	easy
2	1	9	10	49544	9922	0.7713213884271681	0	1.0	1917.1289690129925	0.0			0	1.0	1	0	1.0	0	510	0	0	0	unknown
2	1	9	11	1968	5889	0.7713676834246143	0	1.0	1213.5904149909038	0.0			0	1.0	1	0	1.0	0	511	0	0	0	unknown
2	1	9	12	24161	2377	0.7714139817981049	0	1.0	1735.930894006742	0.0			0	1.0	1	0	1.0	0	512	0	0	0	unknown
2	1	9	13	8543	1492	0.7714602603809908	1	1.0	1084.1372389986643	0.0	209.0		1	1.0	0	1	2.0	0	513	0	0	0	unknown
2	1	9	14	22340	3194	0.7715528595726937	1	1.0	1190.0920969783328	0.0	160.0	319.0	1	1.0	0	1	2.0	0	514	0	0	0	unknown
2	1	9	15	35562	1899	0.7715991637669503	0	1.0	1450.7285449944902	0.0			0	1.0	1	0	1.0	0	515	0	0	0	unknown
2	1	9	16	31054	9049	0.7716454401379451	0	1.0	873.3865589892957	0.0			0	1.0	1	0	1.0	0	516	0	0	0	unknown
2	1	9	17	16931	5081	0.7716917436337098	1	1.0	1241.491732012946	0.0	256.0		1	1.0	0	1	2.0	0	517	0	0	0	unknown
2	1	9	18	32778	8174	0.7717380318790674	1	1.0	817.7462579915299	0.0	141.0	180.0	1	1.0	0	1	2.0	0	518	0	0	0	unknown
2	1	9	19	62800	1624	0.7717843280406668	0	1.0	1237.5168899889104	0.0			0	1.0	1	0	1.0	0	519	0	0	0	unknown
2	1	9	20	38818	511	0.771830620826222	0	0.0	1282.4902969878167	0.0			0	0.0	0	1	2.0	0	520	1	0	1	new
2	1	9	21	41713	4420	0.7718769260682165	0	1.0	1987.2607440047432	0.0			0	1.0	1	0	1.0	0	521	0	0	0	unknown
2	1	9	22	2973	5745	0.771923208492808	0	1.0	1237.7394019858912	0.0			0	1.0	1	0	1.0	0	522	0	0	0	unknown
2	1	9	23	31110	3492	0.7719695158302783	0	1.0	1200.6824629788753	0.0			0	1.0	1	0	1.0	0	523	0	0	0	unknown
2	1	9	24	66490	919	0.7720157908042892	0	1.0	1226.6988069750369	0.0			0	1.0	1	0	1.0	0	524	1	0	1	new
2	1	9	25	44275	5733	0.772108381614089	0	1.0	1102.9462619917467	0.0			0	1.0	1	0	1.0	0	525	0	0	0	unknown
2	1	9	26	66675	8542	0.772154672886245	0	1.0	1262.607898999704	0.0			0	1.0	1	0	1.0	0	526	0	0	0	unknown
2	1	9	27	61442	2220	0.7722009702119976	0	1.0	1426.0041610104963	0.0			0	1.0	1	0	1.0	0	527	0	0	0	unknown
2	1	9	28	71233	984	0.7722472712630406	0	1.0	2002.3526100267193	0.0			0	1.0	1	0	1.0	0	528	1	0	1	new
2	1	9	29	18351	7057	0.7722935669589787	0	1.0	1467.9159049992447	0.0			0	1.0	1	0	1.0	0	529	0	0	0	unknown
2	1	9	30	1262	5896	0.7723397528752683	0	1.0	1288.0243659892585	0.0			0	1.0	1	0	1.0	0	530	0	0	0	unknown
2	1	9	31	42681	7390	0.772386047290638	0	1.0	1314.7282139980234	0.0			0	1.0	1	0	1.0	0	531	0	0	0	unknown
2	1	9	32	14880	5139	0.7724323514848948	0	1.0	1168.6845450021792	0.0			0	1.0	1	0	1.0	0	532	0	0	0	unknown
2	1	9	33	5189	2320	0.7724786361213773	0	1.0	1745.349831006024	0.0			0	1.0	1	0	1.0	0	533	0	0	0	unknown
2	1	9	34	47250	6169	0.7725249353097751	0	1.0	1416.307448002044	0.0			0	1.0	1	0	1.0	0	534	0	0	0	unknown
2	1	9	35	19692	4523	0.772571234148927	1	0.0	1340.1225470006464	0.0	522.0		1	0.0	1	0	1.0	0	535	0	0	0	unknown
2	1	9	36	50169	7240	0.7726638204185292	0	1.0	1448.5493579995818	0.0			0	1.0	1	0	1.0	0	536	0	0	0	unknown
2	1	9	37	25297	6069	0.7727101122727617	0	1.0	1190.782529010903	0.0			0	1.0	1	0	1.0	0	537	0	0	0	unknown
2	1	9	38	46162	6817	0.7727564094820991	0	1.0	1051.0295389976818	0.0			0	1.0	1	0	1.0	0	538	0	0	0	unknown
2	1	9	39	5189	2320	0.772802694234997	1	1.0	938.5673240176402	0.0	5.0		1	1.0	0	1	2.0	0	539	0	0	0	unknown
2	1	9	40	23658	3951	0.7728489980800077	1	1.0	1027.0212329924107	0.0	291.0		1	1.0	0	1	2.0	0	540	0	0	0	unknown
2	1	9	41	45058	7568	0.7728952915640547	0	0.0	2044.5895410084631	0.0			0	0.0	0	1	2.0	0	541	0	0	0	unknown
2	1	9	42	30655	7447	0.7729415838839486	0	1.0	1203.0446669959929	0.0			0	1.0	1	0	1.0	0	542	0	0	0	unknown
2	1	9	43	51822	6540	0.7729878742247819	0	1.0	1361.737756000366	0.0			0	1.0	1	0	1.0	0	543	0	0	0	unknown
2	1	9	44	9430	2255	0.7730341725982725	0	1.0	1446.5332050167488	0.0			0	1.0	1	0	1.0	0	544	0	0	0	unknown
2	1	9	45	67539	9088	0.7731267516501247	0	1.0	1609.5694179821292	0.0			0	1.0	1	0	1.0	0	545	0	0	0	unknown
2	1	9	46	18677	9124	0.7731730540981516	0	1.0	1264.941296976758	0.0			0	1.0	1	0	1.0	0	546	0	0	0	unknown
2	1	9	47	8849	3293	0.7732193530537188	1	1.0	768.2249549834523	0.0	158.0	187.0	1	1.0	0	1	2.0	0	547	0	0	0	unknown
2	1	9	48	2339	2821	0.7732656430453062	0	1.0	2017.059181001969	0.0			0	1.0	1	0	1.0	0	548	0	0	0	unknown
2	1	9	49	13587	4095	0.7733119414187967	0	1.0	1010.4575960140209	0.0			0	1.0	1	0	1.0	0	549	0	0	0	unknown
2	1	9	50	63243	4751	0.7733582239598035	1	1.0	1356.8140479910653	0.0	328.0		1	1.0	0	1	2.0	0	550	0	0	0	unknown
2	1	9	51	71011	2755	0.7734045257093384	1	1.0	1102.3218170157631	0.0	67.0		1	1.0	0	1	2.0	0	551	0	0	0	unknown
2	1	9	52	61905	7655	0.7734508162830024	0	1.0	1471.7662780021783	0.0			0	1.0	1	0	1.0	0	552	0	0	0	unknown
2	1	9	53	23096	3807	0.7734971164027228	0	1.0	1863.06802398758	0.0			0	1.0	1	0	1.0	0	553	0	0	0	unknown
2	1	9	54	51302	3457	0.7735434118658304	1	1.0	1155.6669530109502	0.0	267.0	353.0	1	1.0	0	1	2.0	0	554	0	0	0	unknown
2	1	9	55	48562	8109	0.7736359988339245	1	1.0	1068.867385998601	0.0	115.0		1	1.0	0	1	2.0	0	555	0	0	0	unknown
2	1	9	56	72664	6054	0.7736821945291013	0	1.0	1160.8357279910704	0.0			0	1.0	1	0	1.0	0	556	0	0	0	unknown
2	1	9	57	29504	9508	0.7737284828908741	0	1.0	1231.1473900044803	0.0			0	1.0	1	0	1.0	0	557	0	0	0	unknown
2	1	9	58	48411	3768	0.7737747768405824	0	1.0	1216.2043309945147	0.0			0	1.0	1	0	1.0	0	558	0	0	0	unknown
2	1	9	59	7455	6410	0.7738210773095489	0	0.0	1630.380280985264	0.0			0	0.0	0	1	2.0	0	559	0	0	0	unknown
2	1	9	60	11482	2328	0.7738673622952774	0	1.0	974.6592539886478	0.0			0	1.0	1	0	1.0	0	560	0	0	0	unknown
2	1	9	61	23096	3807	0.7739136666059494	1	1.0	848.1822690228	0.0	7.0		1	1.0	0	1	2.0	0	561	0	0	0	unknown
2	1	9	62	45158	7697	0.773959956364706	0	1.0	1201.9750100153033	0.0			0	1.0	1	0	1.0	0	562	0	0	0	unknown
2	1	9	63	23580	8816	0.7740062555531039	0	1.0	1216.1977890064009	0.0			0	1.0	1	0	1.0	0	563	0	0	0	unknown
2	1	10	1	53955	3444	0.7756100397091358	1	1.0	1171.1932199832515	0.0	314.0	482.0	1	1.0	0	1	2.0	0	564	0	0	0	unknown
2	1	10	2	21419	7744	0.7756563384318724	0	1.0	1602.8295750147663	0.0			0	1.0	1	0	1.0	0	565	0	0	0	unknown
2	1	10	3	56852	6106	0.775702632497996	1	1.0	835.6126960134133	0.0	107.0	295.0	1	1.0	0	1	2.0	0	566	0	0	0	unknown
2	1	10	4	35294	1126	0.7757489392533898	0	1.0	1457.292042003246	0.0			0	1.0	1	0	1.0	0	567	0	0	0	unknown
2	1	10	5	37478	7339	0.7757952150423079	0	1.0	1874.2594579816796	0.0			0	1.0	1	0	1.0	0	568	0	0	0	unknown
2	1	10	6	68959	2913	0.7758415197022259	0	1.0	1112.414642004296	0.0			0	1.0	1	0	1.0	0	569	0	0	0	unknown
2	1	10	7	62977	7572	0.7758878060849383	0	1.0	1025.0092019850852	0.0			0	1.0	1	0	1.0	0	570	0	0	0	unknown
2	1	10	8	50120	8516	0.7759341124910861	1	1.0	1683.080507995328	0.0	202.0		1	1.0	0	1	2.0	0	571	0	0	0	unknown
2	1	10	9	2530	6139	0.775980400503613	0	1.0	1677.852286986308	0.0			0	1.0	1	0	1.0	0	572	0	0	0	unknown
2	1	10	10	37295	9261	0.7760729854926466	0	1.0	979.3972059851512	0.0			0	1.0	1	0	1.0	0	573	0	0	0	unknown
2	1	10	11	42576	8315	0.7761191856116056	1	1.0	842.2869890055154	0.0	167.0	175.0	1	1.0	0	1	2.0	0	574	0	0	0	unknown
2	1	10	12	3627	14	0.7761654754867777	0	1.0	978.8705229875632	0.0			0	1.0	1	0	1.0	0	575	1	0	1	new
2	1	10	13	49538	5660	0.776211773045361	1	1.0	1424.9588339880574	0.0	178.0		1	1.0	0	1	2.0	0	576	0	0	0	unknown
2	1	10	14	60333	6692	0.7762580591952428	1	1.0	733.8868599908893	0.0	143.0	398.0	1	1.0	0	1	2.0	0	577	0	0	0	unknown
2	1	10	15	44611	4211	0.7763043566374108	0	1.0	1024.6210850018542	0.0			0	1.0	1	0	1.0	0	578	0	0	0	unknown
2	1	10	16	56971	9571	0.7763506501214578	0	1.0	1977.1848070085975	0.0			0	1.0	1	0	1.0	0	579	0	0	0	unknown
2	1	10	17	50967	9570	0.7763969447696581	0	1.0	1213.1087930174544	0.0			0	1.0	1	0	1.0	0	580	0	0	0	unknown
2	1	10	18	66705	4400	0.7764432423282414	0	0.0	1820.8766629977615	0.0			0	0.0	0	1	2.0	0	581	0	0	0	unknown
2	1	10	19	12471	8200	0.776489533833228	0	1.0	920.1207589940169	0.0			0	1.0	1	0	1.0	0	582	0	0	0	unknown
2	1	10	20	6605	5345	0.7765358234755694	0	1.0	1034.5177029957995	0.0			0	1.0	1	0	1.0	0	583	0	0	0	unknown
2	1	10	21	47183	4585	0.7766284159151837	0	0.0	1763.3524169796146	0.0			0	0.0	0	1	2.0	0	584	0	0	0	unknown
2	1	10	22	16931	5081	0.7766747128916904	1	1.0	744.7145909827667	0.0	67.0	324.0	1	1.0	0	1	2.0	0	585	0	0	0	unknown
2	1	10	23	53313	7247	0.7767210087040439	0	0.0	1801.3570360199083	0.0			0	0.0	0	1	2.0	0	586	0	0	0	unknown
2	1	10	24	30622	5960	0.7767672929912804	0	1.0	1519.7649479960091	0.0			0	1.0	1	0	1.0	0	587	0	0	0	unknown
2	1	10	25	59833	6843	0.7768135927617549	1	1.0	810.8023630047682	0.0	244.0	485.0	1	1.0	0	1	2.0	0	588	0	0	0	unknown
2	1	10	26	44120	2726	0.7768598841503263	0	1.0	1006.1428119952324	0.0			0	1.0	1	0	1.0	0	589	0	0	0	unknown
2	1	10	27	33116	4285	0.77690618368797	1	1.0	1327.6078359922394	0.0	141.0	403.0	1	1.0	0	1	2.0	0	590	0	0	0	unknown
2	1	10	28	7169	7449	0.776952476473525	0	1.0	1970.585736009525	0.0			0	1.0	1	0	1.0	0	591	0	0	0	unknown
2	1	10	29	27246	3909	0.7769987672800198	0	1.0	1558.8492859969847	0.0			0	1.0	1	0	1.0	0	592	0	0	0	unknown
2	1	10	30	537	6194	0.7770913543645293	0	0.0	1540.3368299885187	0.0			0	0.0	0	1	2.0	0	593	0	0	0	unknown
2	1	10	31	72624	3376	0.7771376455202698	1	1.0	716.52487598476	0.0	484.0		1	1.0	0	1	2.0	0	594	0	0	0	unknown
2	1	10	32	8067	3500	0.7771839479682967	0	1.0	1316.8651869927999	0.0			0	1.0	1	0	1.0	0	595	0	0	0	unknown
2	1	10	33	55364	6752	0.7772302418015897	0	1.0	1074.636332981754	0.0			0	1.0	1	0	1.0	0	596	0	0	0	unknown
2	1	10	34	9666	4739	0.7772765371482819	0	1.0	1276.091252977494	0.0			0	1.0	1	0	1.0	0	597	0	0	0	unknown
2	1	10	35	16342	3456	0.7773228345904499	0	1.0	1060.3036200045608	0.0			0	1.0	1	0	1.0	0	598	0	0	0	unknown
2	1	10	36	19182	230	0.7773690202739089	1	1.0	686.8937049875967	0.0	89.0	164.0	1	1.0	0	1	2.0	0	599	1	0	3	easy
2	1	10	37	45596	616	0.7774153263308107	1	1.0	857.3165329871699	0.0	253.0		1	1.0	0	1	2.0	0	600	1	1	2	easy
2	1	10	38	14529	173	0.777461611200124	0	1.0	1130.3838260064367	0.0			0	1.0	1	0	1.0	0	601	1	0	1	new
2	1	10	39	70243	2163	0.7775079079438	0	1.0	1502.7528119971976	0.0			0	1.0	1	0	1.0	0	602	0	0	0	unknown
2	1	10	40	51435	9008	0.7776005027117207	0	1.0	1642.33792500454	1.0			0	1.0	1	1	1.0	0	603	0	0	0	unknown
2	1	10	41	18481	4465	0.7776467846706508	0	1.0	1903.8298719970044	0.0			0	1.0	1	0	1.0	0	604	0	0	0	unknown
2	1	10	42	23810	7198	0.7776930794352666	0	1.0	1869.4695690064689	0.0			0	1.0	1	0	1.0	0	605	0	0	0	unknown
2	1	10	43	67732	5817	0.7777393786236643	0	1.0	1131.4488819916733	0.0			0	1.0	1	0	1.0	0	606	0	0	0	unknown
2	1	10	44	21570	6148	0.7777856787433847	0	1.0	1314.206611015834	0.0			0	1.0	1	0	1.0	0	607	0	0	0	unknown
2	1	10	45	41938	4356	0.7778319685021415	0	1.0	1270.3803300100844	0.0			0	1.0	1	0	1.0	0	608	0	0	0	unknown
2	1	10	46	39603	4186	0.7778782619861885	1	1.0	1003.5403770161791	0.0	494.0		1	1.0	0	1	2.0	0	609	0	0	0	unknown
2	1	10	47	13145	1703	0.7779245560523123	1	0.0	1235.1056449988391	0.0	570.0		1	0.0	1	0	1.0	0	610	0	0	0	unknown
2	1	10	48	42230	9294	0.7779708527959883	0	1.0	2285.6279210245702	1.0			0	1.0	1	1	1.0	0	611	0	0	0	unknown
2	1	10	49	58027	6311	0.7780171375488862	1	1.0	826.1162810085808	0.0	133.0	256.0	1	1.0	0	1	2.0	0	612	0	0	0	unknown
2	1	10	50	36675	9492	0.7780634410446509	0	1.0	1920.391802996164	0.0			0	1.0	1	0	1.0	0	613	0	0	0	unknown
2	1	10	51	17574	8688	0.7781097340630367	0	1.0	2446.942445996683	0.0			0	1.0	1	0	1.0	0	614	0	0	0	unknown
2	1	10	52	12258	3319	0.7782023231266066	0	1.0	914.3243830185384	0.0			0	1.0	1	0	1.0	0	615	0	0	0	unknown
2	1	10	53	41819	1769	0.7782486109063029	0	1.0	958.1830620008985	0.0			0	1.0	1	0	1.0	0	616	0	0	0	unknown
2	1	10	54	5414	8140	0.7782949085813015	0	1.0	1002.7538370050024	0.0			0	1.0	1	0	1.0	0	617	0	0	0	unknown
2	1	10	55	7157	7561	0.7783412053249776	0	1.0	1178.9834260125645	0.0			0	1.0	1	0	1.0	0	618	0	0	0	unknown
2	1	10	56	17846	2304	0.7783874954329802	0	0.0	2183.8248720159754	1.0			0	0.0	1	2	2.0	0	619	0	0	0	unknown
2	1	10	57	41171	2481	0.7784337938064709	0	0.0	1207.887516997289	0.0			0	0.0	0	1	2.0	0	620	0	0	0	unknown
2	1	10	58	23291	2880	0.7784800848457962	1	1.0	1682.0212409947999	0.0	402.0		1	1.0	0	1	2.0	0	621	0	0	0	unknown
2	1	10	59	19324	2186	0.7785263812402263	1	1.0	709.1340369952377	0.0	162.0		1	1.0	0	1	2.0	0	622	0	0	0	unknown
2	1	10	60	46388	2935	0.7785725793801248	0	1.0	703.4538150182925	0.0			0	1.0	1	0	1.0	0	623	0	0	0	unknown
2	1	10	61	22005	5193	0.7786188654135912	0	1.0	1079.1118369961623	0.0			0	1.0	1	0	1.0	0	624	0	0	0	unknown
2	1	10	62	9918	116	0.778665162040852	1	1.0	1003.1115580059122	0.0	267.0		1	1.0	0	1	2.0	0	625	1	0	2	easy
2	1	11	1	52162	9647	0.7803281767992302	0	1.0	917.6471579994541	0.0			0	1.0	1	0	1.0	0	626	0	0	0	unknown
2	1	11	2	17029	1791	0.7803744846023619	0	1.0	1201.6359900007956	0.0			0	1.0	1	0	1.0	0	627	0	0	0	unknown
2	1	11	3	2492	1407	0.7804207630688323	0	1.0	1877.0131219935136	0.0			0	1.0	1	0	1.0	0	628	0	0	0	unknown
2	1	11	4	56043	770	0.7804670620243996	0	1.0	1524.0149089950137	0.0			0	1.0	1	0	1.0	0	629	1	0	1	new
2	1	11	5	32777	2830	0.7805133457295595	0	1.0	1363.685065007303	0.0			0	1.0	1	0	1.0	0	630	0	0	0	unknown
2	1	11	6	35794	2129	0.7805596558609977	0	1.0	1370.7696399942506	0.0			0	1.0	1	0	1.0	0	631	0	0	0	unknown
2	1	11	7	43968	2579	0.7806059457361698	0	1.0	953.1018139969091	0.0			0	1.0	1	0	1.0	0	632	0	0	0	unknown
2	1	11	8	49483	3014	0.7806522434111683	1	1.0	818.8810279825702	0.0	444.0	540.0	1	1.0	0	1	2.0	0	633	0	0	0	unknown
2	1	11	9	34239	459	0.7806985233910381	0	0.0	1303.8612059899604	0.0			0	0.0	0	1	2.0	0	634	1	0	1	new
2	1	11	10	48464	2642	0.780744825489819	0	1.0	1320.3386910026893	0.0			0	1.0	1	0	1.0	0	635	0	0	0	unknown
2	1	11	11	4426	8996	0.7807911187410354	0	1.0	2102.514749014517	0.0			0	1.0	1	0	1.0	0	636	0	0	0	unknown
2	1	11	12	2973	5745	0.7808374249143525	1	1.0	1122.7805070229806	0.0	114.0		1	1.0	0	1	2.0	0	637	0	0	0	unknown
2	1	11	13	48403	3410	0.7809300055960193	0	0.0	1602.6762649999	0.0			0	0.0	0	1	2.0	0	638	0	0	0	unknown
2	1	11	14	34041	8116	0.7809762936085461	0	1.0	1076.8551790097263	0.0			0	1.0	1	0	1.0	0	639	0	0	0	unknown
2	1	11	15	44275	5733	0.7810225908178836	1	1.0	1702.872819994809	0.0	114.0		1	1.0	0	1	2.0	0	640	0	0	0	unknown
2	1	11	16	23658	3951	0.781068883719854	1	1.0	765.0648019916844	0.0	100.0	392.0	1	1.0	0	1	2.0	0	641	0	0	0	unknown
2	1	11	17	51649	1482	0.7811150803463534	0	1.0	1169.4648780103307	0.0			0	1.0	1	0	1.0	0	642	0	0	0	unknown
2	1	11	18	36169	4599	0.7811613685917109	0	1.0	1114.6691239846405	0.0			0	1.0	1	0	1.0	0	643	0	0	0	unknown
2	1	11	19	60141	4040	0.7812076591653749	0	1.0	1682.4057909834664	0.0			0	1.0	1	0	1.0	0	644	0	0	0	unknown
2	1	11	20	54645	4982	0.7812539557926356	0	0.0	2054.5389380131382	0.0			0	0.0	0	1	2.0	0	645	0	0	0	unknown
2	1	11	21	35039	8474	0.7813002505572512	0	1.0	963.8560320017859	0.0			0	1.0	1	0	1.0	0	646	0	0	0	unknown
2	1	11	22	38398	9657	0.7813465509098023	1	1.0	945.9206830069888	0.0	321.0		1	1.0	0	1	2.0	0	647	0	0	0	unknown
2	1	11	23	28338	6168	0.7814391346182674	0	1.0	1136.0150130058173	0.0			0	1.0	1	0	1.0	0	648	0	0	0	unknown
2	1	11	24	29277	6537	0.7814854348544031	0	0.0	1612.3089190223254	0.0			0	0.0	0	1	2.0	0	649	0	0	0	unknown
2	1	11	25	67254	4759	0.7815317320637404	0	1.0	1463.6637090006843	0.0			0	1.0	1	0	1.0	0	650	0	0	0	unknown
2	1	11	26	34931	5514	0.7815780133241788	1	1.0	1089.7589219966903	0.0	171.0		1	1.0	0	1	2.0	0	651	0	0	0	unknown
2	1	11	27	16669	4620	0.7816243139095604	0	1.0	1013.6651760258246	0.0			0	1.0	1	0	1.0	0	652	0	0	0	unknown
2	1	11	28	31273	7333	0.7816706098383291	0	0.0	1809.5872520061675	0.0			0	0.0	0	1	2.0	0	653	0	0	0	unknown
2	1	11	29	12000	1069	0.7817169034387916	0	0.0	1753.2431829895359	0.0			0	0.0	0	1	2.0	0	654	0	0	0	unknown
2	1	11	30	48250	1218	0.7817631895886734	0	1.0	725.1521869911811	0.0			0	1.0	1	0	1.0	0	655	0	0	0	unknown
2	1	11	31	37085	1512	0.7818094916874542	0	0.0	1582.2088079876266	0.0			0	0.0	0	2	2.0	0	656	0	0	0	unknown
2	1	11	32	36169	4599	0.7818557866849005	1	1.0	1002.7144679916092	0.0	13.0		1	1.0	0	1	2.0	0	657	0	0	0	unknown
2	1	11	33	53321	1040	0.7819020781898871	0	1.0	1025.9556800010614	0.0			0	1.0	1	0	1.0	0	658	0	0	0	unknown
2	1	11	34	62800	1624	0.781948369112797	1	1.0	1349.7687400085852	0.0	139.0		1	1.0	0	1	2.0	0	659	0	0	0	unknown
2	1	11	35	29082	1808	0.7820409637643024	1	1.0	1746.8856970081104	0.0	333.0		1	1.0	0	1	2.0	0	660	0	0	0	unknown
2	1	11	36	431	4690	0.7820872548036277	0	1.0	1005.5058330181054	0.0			0	1.0	1	0	1.0	0	661	0	0	0	unknown
2	1	11	37	43244	5019	0.7821335433982312	0	1.0	1039.392619015416	0.0			0	1.0	1	0	1.0	0	662	0	0	0	unknown
2	1	11	38	24570	5219	0.7821798409568145	0	1.0	1009.469699987676	0.0			0	1.0	1	0	1.0	0	663	0	0	0	unknown
2	1	11	39	19115	9102	0.7822261363035067	0	1.0	929.1259610035921	0.0			0	1.0	1	0	1.0	0	664	0	0	0	unknown
2	1	11	40	28904	9621	0.7822724304860457	1	1.0	830.0509749969933	0.0	547.0		1	1.0	0	1	2.0	0	665	0	0	0	unknown
2	1	11	41	72870	5874	0.7823187225731089	0	1.0	1044.5350560185032	0.0			0	1.0	1	0	1.0	0	666	0	0	0	unknown
2	1	11	42	14122	169	0.7823649228084832	0	1.0	3111.5073710097927	1.0			0	1.0	1	1	1.0	0	667	1	0	1	new
2	1	11	43	67539	9088	0.7824112146627157	1	1.0	1103.6447329970542	0.0	122.0		1	1.0	0	1	2.0	0	668	0	0	0	unknown
2	1	11	44	8337	4637	0.7825038030277937	0	1.0	1016.4102480048311	0.0			0	1.0	1	0	1.0	0	669	0	0	0	unknown
2	1	11	45	61824	4522	0.7825501014012843	0	1.0	1271.8072309799027	0.0			0	1.0	1	0	1.0	0	670	0	0	0	unknown
2	1	11	46	17255	7224	0.7825963960494846	0	0.0	1140.0558150198776	0.0			0	0.0	0	1	2.0	0	671	0	0	0	unknown
2	1	11	47	20005	3822	0.7826426830142736	0	1.0	970.1878070191015	0.0			0	1.0	1	0	1.0	0	672	0	0	0	unknown
2	1	11	48	70640	6407	0.782688983133994	0	1.0	1729.9479159992188	0.0			0	1.0	1	0	1.0	0	673	0	0	0	unknown
2	1	11	49	42501	8393	0.7827352778986096	0	1.0	1024.1355200123508	0.0			0	1.0	1	0	1.0	0	674	0	0	0	unknown
2	1	11	50	34041	8116	0.7827815712662413	1	1.0	1019.336769997608	0.0	35.0		1	1.0	0	1	2.0	0	675	0	0	0	unknown
2	1	11	51	70606	2044	0.7828278614906594	0	0.0	1286.2967969849703	0.0			0	0.0	0	1	2.0	0	676	0	0	0	unknown
2	1	11	52	63347	3862	0.7828741556731984	1	1.0	1128.249112982303	0.0	247.0		1	1.0	0	1	2.0	0	677	0	0	0	unknown
2	1	11	53	33933	8019	0.7829204479930922	0	1.0	934.5964469830504	0.0			0	1.0	1	0	1.0	0	678	0	0	0	unknown
2	1	11	54	2492	1407	0.7830130498623475	1	1.0	982.0826560026034	0.0	50.0		1	1.0	0	1	2.0	0	679	0	0	0	unknown
2	1	11	55	11300	7367	0.7830593379912897	1	1.0	1173.614555009408	0.0	589.0		1	1.0	0	1	2.0	0	680	0	0	0	unknown
2	1	11	56	9081	8706	0.7831056287977844	0	1.0	984.643028001301	0.0			0	1.0	1	0	1.0	0	681	0	0	0	unknown
2	1	11	57	42403	2753	0.7831519269384443	0	1.0	1383.2310670113657	0.0			0	1.0	1	0	1.0	0	682	0	0	0	unknown
2	1	11	58	58224	3802	0.7831982140196487	0	0.0	1722.8197490039747	0.0			0	0.0	0	1	2.0	0	683	0	0	0	unknown
2	1	11	59	38398	9657	0.7832445091335102	1	1.0	721.8435099930502	0.0	36.0	358.0	1	1.0	0	1	2.0	0	684	0	0	0	unknown
2	1	11	60	71528	5714	0.7832908092532306	1	1.0	863.8626909814776	0.0	191.0	390.0	1	1.0	0	1	2.0	0	685	0	0	0	unknown
2	1	11	61	26352	347	0.7833371018059551	0	1.0	1237.2402820037676	0.0			0	1.0	1	0	1.0	0	686	1	0	1	new
2	1	11	62	61824	4522	0.7833833929616957	1	1.0	960.6419979827479	0.0	16.0		1	1.0	0	1	2.0	0	687	0	0	0	unknown
2	1	11	63	32701	5102	0.7834296867949888	0	1.0	1803.4038959885947	0.0			0	1.0	1	0	1.0	0	688	0	0	0	unknown
2	1	12	1	9273	1122	0.7850634792121127	0	1.0	1053.626526001608	0.0			0	1.0	1	0	1.0	0	689	0	0	0	unknown
2	1	12	2	4787	36	0.7851097694365307	1	1.0	2251.23833300313	0.0	286.0		1	1.0	0	1	2.0	0	690	1	0	2	easy
2	1	12	3	53481	5273	0.7851560635026544	0	1.0	982.3906150122639	0.0			0	1.0	1	0	1.0	0	691	0	0	0	unknown
2	1	12	4	62644	9335	0.7852023490704596	1	1.0	1203.1643410155084	0.0	269.0		1	1.0	0	1	2.0	0	692	0	0	0	unknown
2	1	12	5	48403	3410	0.7852486498886719	1	1.0	1036.4011079946067	0.0	54.0		1	1.0	0	1	2.0	0	693	0	0	0	unknown
2	1	12	6	59739	5670	0.7852949473308399	0	1.0	1727.0390710036736	0.0			0	1.0	1	0	1.0	0	694	0	0	0	unknown
2	1	12	7	35468	5449	0.7853412351105362	0	1.0	1525.8097680052742	0.0			0	1.0	1	0	1.0	0	695	0	0	0	unknown
2	1	12	8	32229	4580	0.7853875338332728	0	1.0	1833.3294469921384	0.0			0	1.0	1	0	1.0	0	696	0	0	0	unknown
2	1	12	9	44350	1994	0.7854338288307189	0	1.0	1580.830970982788	0.0			0	1.0	1	0	1.0	0	697	0	0	0	unknown
2	1	12	10	69388	1386	0.7854801217326894	0	0.0	1814.0443060256075	1.0			0	0.0	1	1	2.0	0	698	0	0	0	unknown
2	1	12	11	14601	9828	0.78552641288843	0	1.0	970.3705549763981	0.0			0	1.0	1	0	1.0	0	699	0	0	0	unknown
2	1	12	12	62791	9484	0.785572710679844	1	1.0	1677.7293960039967	0.0	371.0		1	1.0	0	1	2.0	0	700	0	0	0	unknown
2	1	12	13	45421	1490	0.7856190042803063	0	1.0	1003.1481949845328	0.0			0	1.0	1	0	1.0	0	701	0	0	0	unknown
2	1	12	14	11160	131	0.7857115931110455	0	1.0	1338.7733129784465	0.0			0	1.0	1	0	1.0	0	702	1	0	1	new
2	1	12	15	72609	5518	0.7857578879920765	0	1.0	1258.0914460122583	0.0			0	1.0	1	0	1.0	0	703	0	0	0	unknown
2	1	12	16	62390	1103	0.7858041832223533	0	0.0	1303.2336799951736	0.0			0	0.0	0	1	2.0	0	704	0	0	0	unknown
2	1	12	17	21452	5354	0.7858504732139407	0	1.0	1104.3521300016437	0.0			0	1.0	1	0	1.0	0	705	0	0	0	unknown
2	1	12	18	22664	8405	0.7858967659994959	0	0.0	1932.1828399843073	0.0			0	0.0	0	1	2.0	0	706	0	0	0	unknown
2	1	12	19	38616	4272	0.7859430577373132	0	1.0	1012.5656410236842	0.0			0	1.0	1	0	1.0	0	707	0	0	0	unknown
2	1	12	20	12466	9513	0.7859893498243764	0	1.0	1218.9946150174364	0.0			0	1.0	1	0	1.0	0	708	0	0	0	unknown
2	1	12	21	28264	7408	0.7860356522724032	0	1.0	1902.5569109944624	0.0			0	1.0	1	0	1.0	0	709	0	0	0	unknown
2	1	12	22	68959	2913	0.7860819399356842	1	1.0	1118.7542930128984	0.0	140.0		1	1.0	0	1	2.0	0	710	0	0	0	unknown
2	1	12	23	22607	1834	0.7861281429650261	0	1.0	1553.188312012935	0.0			0	1.0	1	0	1.0	0	711	0	0	0	unknown
2	1	12	24	68132	7141	0.7862207293510437	0	0.0	2054.431761993328	0.0			0	0.0	0	1	2.0	0	712	0	0	0	unknown
2	1	12	25	65730	1784	0.7862670256290584	0	1.0	928.1655980157666	0.0			0	1.0	1	0	1.0	0	713	0	0	0	unknown
2	1	12	26	68508	3880	0.7863133181817828	0	1.0	1063.5578490037003	0.0			0	1.0	1	0	1.0	0	714	0	0	0	unknown
2	1	12	27	2492	1407	0.7863596054958178	1	1.0	975.5227869900408	0.0	35.0	86.0	1	1.0	0	1	2.0	0	715	0	0	0	unknown
2	1	12	28	56527	5778	0.7864059086423367	0	0.0	2637.697408994427	0.0			0	0.0	0	1	2.0	0	716	0	0	0	unknown
2	1	12	29	14008	5306	0.7864522028248757	0	1.0	825.7658790098502	0.0			0	1.0	1	0	1.0	0	717	0	0	0	unknown
2	1	12	30	72037	6677	0.7864984943298622	0	1.0	1202.346784994006	0.0			0	1.0	1	0	1.0	0	718	0	0	0	unknown
2	1	12	31	59704	6378	0.7865447930525988	0	1.0	847.7423429721966	0.0			0	1.0	1	0	1.0	0	719	0	0	0	unknown
2	1	12	32	58514	2451	0.7865910801338031	1	1.0	1128.6064510059075	0.0	305.0		1	1.0	0	1	2.0	0	720	0	0	0	unknown
2	1	12	33	20005	3822	0.786637372104451	1	1.0	1102.8169279743452	0.0	48.0		1	1.0	0	1	2.0	0	721	0	0	0	unknown
2	1	12	34	56122	5870	0.7867299697827547	0	1.0	1726.3825329719111	0.0			0	1.0	1	0	1.0	0	722	0	0	0	unknown
2	1	12	35	63326	2567	0.7867762550013139	0	1.0	1460.468106000917	0.0			0	1.0	1	0	1.0	0	723	0	0	0	unknown
2	1	12	36	34823	1446	0.7868225573329254	0	1.0	1331.275952019496	0.0			0	1.0	1	0	1.0	0	724	0	0	0	unknown
2	1	12	37	14529	173	0.7868688509333878	1	1.0	659.4096999906469	0.0	123.0		1	1.0	0	1	2.0	0	725	1	0	2	easy
2	1	12	38	47092	5360	0.7869151391787454	0	1.0	2179.194511001697	0.0			0	1.0	1	0	1.0	0	726	0	0	0	unknown
2	1	12	39	28338	6168	0.7869614381343126	1	1.0	852.2110230114776	0.0	78.0		1	1.0	0	1	2.0	0	727	0	0	0	unknown
2	1	12	40	36169	4599	0.7870077296392992	1	1.0	755.1488000026438	0.0	70.0	84.0	1	1.0	0	1	2.0	0	728	0	0	0	unknown
2	1	12	41	58187	4614	0.7870540245203301	0	1.0	1124.7788989858236	0.0			0	1.0	1	0	1.0	0	729	0	0	0	unknown
2	1	12	42	57050	8417	0.7871003134641796	0	1.0	1791.158549982356	0.0			0	1.0	1	0	1.0	0	730	0	0	0	unknown
2	1	12	43	33903	2034	0.7871929024113342	0	1.0	826.5593310061377	0.0			0	1.0	1	0	1.0	0	731	0	0	0	unknown
2	1	12	44	29838	398	0.7872392035787925	0	1.0	1553.599425998982	0.0			0	1.0	1	0	1.0	0	732	1	0	1	new
2	1	12	45	35176	8629	0.7872854964807628	0	1.0	1337.4303510063328	0.0			0	1.0	1	0	1.0	0	733	0	0	0	unknown
2	1	12	46	33485	1411	0.7873317890334874	0	1.0	1051.4886339951772	0.0			0	1.0	1	0	1.0	0	734	0	0	0	unknown
2	1	12	47	26374	2152	0.7873780807713046	0	1.0	1282.5445070047863	0.0			0	1.0	1	0	1.0	0	735	0	0	0	unknown
2	1	12	48	59202	6858	0.7874242819380015	0	1.0	1134.5186429971363	0.0			0	1.0	1	0	1.0	0	736	0	0	0	unknown
2	1	12	49	39990	9391	0.7874705702997744	0	1.0	1168.8023020105902	0.0			0	1.0	1	0	1.0	0	737	0	0	0	unknown
2	1	12	50	21452	5354	0.787516867625527	1	1.0	658.1756230152678	0.0	32.0		1	1.0	0	1	2.0	0	738	0	0	0	unknown
2	1	12	51	58145	805	0.7875631587812677	1	1.0	718.6536160006654	0.0	240.0		1	1.0	0	1	2.0	0	739	1	0	2	easy
2	1	12	52	4008	4665	0.7876557473791763	0	1.0	1454.0225289820228	0.0			0	1.0	1	0	1.0	0	740	0	0	0	unknown
2	1	12	53	7157	7561	0.787702047964558	1	1.0	1349.5239710027815	0.0	122.0		1	1.0	0	1	2.0	0	741	0	0	0	unknown
2	1	12	54	66565	8160	0.7877483442425727	0	1.0	1102.113974979147	0.0			0	1.0	1	0	1.0	0	742	0	0	0	unknown
2	1	12	55	41211	2161	0.7877946362132205	0	1.0	962.0237199997064	0.0			0	1.0	1	0	1.0	0	743	0	0	0	unknown
2	1	12	56	11876	7903	0.7878409308614209	0	1.0	903.1535770045592	0.0			0	1.0	1	0	1.0	0	744	0	0	0	unknown
2	1	12	57	1864	7560	0.7878872238798066	0	1.0	1454.7630859888159	0.0			0	1.0	1	0	1.0	0	745	0	0	0	unknown
2	1	12	58	37499	2370	0.7879335180623456	0	1.0	937.987231009174	0.0			0	1.0	1	0	1.0	0	746	0	0	0	unknown
2	1	12	59	38286	2563	0.7879798135254532	0	0.0	905.3777489752974	0.0			0	0.0	0	1	2.0	0	747	0	0	0	unknown
2	1	12	60	48682	670	0.7880261079408228	0	1.0	1632.8368780086748	0.0			0	1.0	1	0	1.0	0	748	1	0	1	new
2	1	12	61	24990	9409	0.7880723966518417	0	1.0	814.3403540016152	0.0			0	1.0	1	0	1.0	0	749	0	0	0	unknown
2	1	12	62	29703	9681	0.7881186886224895	0	1.0	1655.9958099969663	0.0			0	1.0	1	0	1.0	0	750	0	0	0	unknown
2	2	1	1	44176	8819	9.593042701948434	0	1.0	2412.9916890087766	1.0			0	1.0	1	1	1.0	0	751	0	0	0	unknown
2	2	1	2	7066	2972	9.593089000904	0	1.0	981.225765994168	0.0			0	1.0	1	0	1.0	0	752	0	0	0	unknown
2	2	1	3	14595	175	9.593135284376329	0	1.0	1138.7261550116818	0.0			0	1.0	1	0	1.0	0	753	1	0	1	new
2	2	1	4	47250	6169	9.593181596836077	1	1.0	1890.2622860041447	0.0	219.0		0	0.0	0	1	2.0	0	754	0	0	0	unknown
2	2	1	5	50417	1591	9.593227878329344	0	1.0	917.7541440003552	0.0			0	1.0	1	0	1.0	0	755	0	0	0	unknown
2	2	1	6	19301	4692	9.593274179846048	0	0.0	1323.7366399989696	0.0			0	0.0	0	1	2.0	0	756	0	0	0	unknown
2	2	1	7	40209	4152	9.593320462154225	0	1.0	1309.4338539958699	0.0			0	1.0	1	0	1.0	0	757	0	0	0	unknown
2	2	1	8	18850	7167	9.59336676436942	0	1.0	1284.9033009988489	0.0			0	1.0	1	0	1.0	0	758	0	0	0	unknown
2	2	1	9	18481	4465	9.59341305785347	1	1.0	2258.31242800632	1.0	154.0		0	0.0	1	1	2.0	0	759	0	0	0	unknown
2	2	1	10	44708	5313	9.593459359370172	0	1.0	1545.211473989184	0.0			0	1.0	1	0	1.0	0	760	0	0	0	unknown
2	2	1	11	24481	305	9.593505640863441	0	1.0	1404.9294110009212	0.0			0	1.0	1	0	1.0	0	761	1	0	1	new
2	2	1	12	52018	9575	9.593551943893544	1	0.0	1423.6117810069115	0.0	346.0		0	1.0	1	0	1.0	0	762	0	0	0	unknown
2	2	1	13	36975	487	9.593598230625503	0	1.0	1148.5465000005206	0.0			0	1.0	1	0	1.0	0	763	1	1	1	new
2	2	1	14	64765	3997	9.593644537846556	0	1.0	1442.0740579953415	0.0			0	1.0	1	0	1.0	0	764	0	0	0	unknown
2	2	1	15	42681	7390	9.59373711887747	1	0.0	1769.920398000977	0.0	233.0		0	1.0	1	0	1.0	0	765	0	0	0	unknown
2	2	1	16	49029	1277	9.59378340933472	0	1.0	1007.3058999987552	0.0			0	1.0	1	0	1.0	0	766	0	0	0	unknown
2	2	1	17	29672	2195	9.593829699791968	0	1.0	1238.087906007422	0.0			0	1.0	1	0	1.0	0	767	0	0	0	unknown
2	2	1	18	72321	5101	9.5938759916462	0	1.0	1349.7504190017935	0.0			0	1.0	1	0	1.0	0	768	0	0	0	unknown
2	2	1	19	42978	1826	9.593922279076649	0	1.0	1746.3863540033344	0.0			0	1.0	1	0	1.0	0	769	0	0	0	unknown
2	2	1	20	50417	1591	9.59396857849788	1	1.0	823.9472980058052	0.0	14.0		1	1.0	0	1	2.0	0	770	0	0	0	unknown
2	2	1	21	65597	2080	9.594014874543063	0	1.0	1355.2397589955945	0.0			0	1.0	1	0	1.0	0	771	0	0	0	unknown
2	2	1	22	24275	3804	9.594061171985231	0	1.0	972.390634007752	0.0			0	1.0	1	0	1.0	0	772	0	0	0	unknown
2	2	1	23	14702	2773	9.594107459997758	0	0.0	944.1460460075176	0.0			0	0.0	0	1	2.0	0	773	0	0	0	unknown
2	2	1	24	6605	5345	9.594200052670205	1	0.0	1110.3003400057787	0.0	190.0		0	1.0	1	0	1.0	0	774	0	0	0	unknown
2	2	1	25	36246	7130	9.59424634091556	1	1.0	1076.1779580061557	0.0	336.0	497.0	0	0.0	0	1	2.0	0	775	0	0	0	unknown
2	2	1	26	43875	3770	9.594292640103959	1	0.0	1112.524960990413	0.0	646.0		0	1.0	1	0	1.0	0	776	0	0	0	unknown
2	2	1	27	69388	1386	9.594338938244618	1	1.0	1387.2862429998347	0.0	78.0		0	0.0	0	2	2.0	0	777	0	0	0	unknown
2	2	1	28	3248	9317	9.594385227770545	0	1.0	1010.994666008628	0.0			0	1.0	1	0	1.0	0	778	0	0	0	unknown
2	2	1	29	8469	8105	9.594431523466481	0	1.0	1463.6924720107345	0.0			0	1.0	1	0	1.0	0	779	0	0	0	unknown
2	2	1	30	47247	8280	9.594477821839972	1	1.0	1134.4365550030489	0.0	413.0		0	0.0	0	1	2.0	0	780	0	0	0	unknown
2	2	1	31	36911	485	9.594524114741944	0	1.0	902.5429080065804	0.0			0	1.0	1	0	1.0	0	781	1	0	1	new
2	2	1	32	16703	200	9.594570397399364	0	1.0	1057.1978200023295	0.0			0	1.0	1	0	1.0	0	782	1	0	1	new
2	2	1	33	48997	9130	9.594616696122102	0	1.0	819.3907870008843	0.0			0	1.0	1	0	1.0	0	783	0	0	0	unknown
2	2	1	34	17039	2587	9.59466289402917	0	1.0	1832.9347440012496	0.0			0	1.0	1	0	1.0	0	784	0	0	0	unknown
2	2	1	35	61744	2904	9.594709186931139	0	1.0	1186.6912609984863	0.0			0	1.0	1	0	1.0	0	785	0	0	0	unknown
2	2	1	36	16655	4239	9.594801770639604	0	1.0	1304.1789589915425	0.0			0	1.0	1	0	1.0	0	786	0	0	0	unknown
2	2	1	37	58466	8001	9.59484807914123	0	1.0	1153.2980070041958	0.0			0	1.0	1	0	1.0	0	787	0	0	0	unknown
2	2	1	38	42710	3312	9.594894369831309	0	1.0	1341.4751649979735	0.0			0	1.0	1	0	1.0	0	788	0	0	0	unknown
2	2	1	39	71289	6903	9.594940656679682	0	1.0	1530.1666909945195	0.0			0	1.0	1	0	1.0	0	789	0	0	0	unknown
2	2	1	40	44708	5313	9.594986957497895	1	1.0	822.1150860044872	0.0	29.0		1	1.0	0	1	2.0	0	790	0	0	0	unknown
2	2	1	41	22031	5567	9.595033254357986	0	1.0	1643.1094290019244	0.0			0	1.0	1	0	1.0	0	791	0	0	0	unknown
2	2	1	42	7907	9012	9.595079546212217	0	1.0	1268.5546519933268	0.0			0	1.0	1	0	1.0	0	792	0	0	0	unknown
2	2	1	43	44589	5208	9.595125841093248	0	1.0	915.9174359956525	0.0			0	1.0	1	0	1.0	0	793	0	0	0	unknown
2	2	1	44	5819	3475	9.595172133762388	0	1.0	1210.6211609934687	0.0			0	1.0	1	0	1.0	0	794	0	0	0	unknown
2	2	1	45	50289	2336	9.595218423986807	1	1.0	1104.4035259983502	0.0	366.0	433.0	0	0.0	0	1	2.0	0	795	0	0	0	unknown
2	2	1	46	51435	9008	9.595311012351885	1	0.0	979.0579940017777	0.0	192.0		0	1.0	1	0	1.0	0	796	0	0	0	unknown
2	2	1	47	24928	7974	9.595357305370271	1	1.0	1111.5249610011233	0.0	333.0	539.0	0	0.0	0	1	2.0	0	797	0	0	0	unknown
2	2	1	48	66800	8441	9.595403599902056	1	0.0	1105.944268987514	0.0	582.0		0	1.0	1	0	1.0	0	798	0	0	0	unknown
2	2	1	49	5603	53	9.595449902699329	1	0.0	970.5380989908009	0.0	565.0		0	1.0	1	0	1.0	0	799	1	0	2	hard
2	2	1	50	3627	14	9.59549619234167	1	0.0	1701.9439709984	0.0	224.0		0	1.0	1	0	1.0	0	800	1	0	2	hard
2	2	1	51	9430	2255	9.595542478375137	1	0.0	1186.4367969974408	0.0	256.0		0	1.0	1	0	1.0	0	801	0	0	0	unknown
2	2	1	52	58816	4096	9.59558877744712	0	1.0	887.6351299986709	0.0			0	1.0	2	0	1.0	0	802	0	0	0	unknown
2	2	1	53	61749	848	9.595635071513245	0	1.0	1276.0104359913385	0.0			0	1.0	1	0	1.0	0	803	1	0	1	new
2	2	1	54	41943	4139	9.595681362901814	0	1.0	1519.1061430086847	0.0			0	1.0	1	0	1.0	0	804	0	0	0	unknown
2	2	1	55	6965	9969	9.59577395755332	0	1.0	1602.3367089946987	0.0			0	1.0	1	0	1.0	0	805	0	0	0	unknown
2	2	1	56	56743	5604	9.595820250571704	0	1.0	1761.6026629984844	0.0			0	1.0	1	0	1.0	0	806	0	0	0	unknown
2	2	1	57	71766	5629	9.595866443472914	0	1.0	1131.9026860001031	0.0			0	1.0	1	0	1.0	0	807	0	0	0	unknown
2	2	1	58	56628	5555	9.595912742661312	0	1.0	1236.558552001952	0.0			0	1.0	1	0	1.0	0	808	0	0	0	unknown
2	2	1	59	8007	86	9.595959037658758	0	1.0	1079.8867599951336	0.0			0	1.0	1	0	1.0	0	809	1	0	1	new
2	2	1	60	11251	7292	9.596005331142804	0	1.0	768.9437480003107	0.0			0	1.0	1	0	1.0	0	810	0	0	0	unknown
2	2	1	61	15092	2391	9.59605162241496	0	1.0	1376.0066219983855	0.0			0	1.0	1	0	1.0	0	811	0	0	0	unknown
2	2	1	62	14324	1282	9.596097919624297	0	1.0	1102.9522489989176	0.0			0	1.0	1	0	1.0	0	812	0	0	0	unknown
2	2	1	63	26374	2152	9.596144210314378	1	0.0	2284.081502992194	0.0	77.0		0	1.0	1	0	1.0	0	813	0	0	0	unknown
2	2	2	1	27766	7785	9.598069250932895	0	1.0	1275.5481529893586	0.0			0	1.0	1	0	1.0	0	814	0	0	0	unknown
2	2	2	2	35303	4946	9.59811555116903	0	1.0	1285.083825991023	0.0			0	1.0	1	0	1.0	0	815	0	0	0	unknown
2	2	2	3	40201	6483	9.59816183836665	0	1.0	1279.1190310090315	0.0			0	1.0	1	0	1.0	0	816	0	0	0	unknown
2	2	2	4	60624	1436	9.598208134179005	0	1.0	1203.4297210047953	0.0			0	1.0	1	0	1.0	0	817	0	0	0	unknown
2	2	2	5	42241	6808	9.598254422773609	0	1.0	1130.8201139909215	0.0			0	1.0	1	0	1.0	0	818	0	0	0	unknown
2	2	2	6	3484	6129	9.598300732788628	0	1.0	1301.4192749978974	0.0			0	1.0	1	0	1.0	0	819	0	0	0	unknown
2	2	2	7	9894	3625	9.598347007064147	0	1.0	1254.0386639884673	0.0			0	1.0	1	0	1.0	0	820	0	0	0	unknown
2	2	2	8	7221	4127	9.59839332662523	0	1.0	1072.2129580099136	0.0			0	1.0	1	0	1.0	0	821	0	0	0	unknown
2	2	2	9	4787	36	9.59843960381113	1	1.0	1158.4674499899847	0.0	131.0	418.0	0	0.0	0	1	2.0	0	822	1	0	3	hard
2	2	2	10	9894	3625	9.598485923954286	1	1.0	1172.918237003614	0.0	2.0		1	1.0	0	1	2.0	0	823	0	0	0	unknown
2	2	2	11	41071	8509	9.598578519653529	0	1.0	1022.5074850022792	0.0			0	1.0	1	0	1.0	0	824	0	0	0	unknown
2	2	2	12	6190	7629	9.598624780075625	0	1.0	1886.8277809961	0.0			0	1.0	1	0	1.0	0	825	0	0	0	unknown
2	2	2	13	48250	1218	9.598671117913907	1	1.0	1134.3251600046642	0.0	170.0		0	0.0	0	1	2.0	0	826	0	0	0	unknown
2	2	2	14	7455	6410	9.598717368789949	1	0.0	2008.7554450001332	0.0	267.0		0	1.0	1	0	1.0	0	827	0	0	0	unknown
2	2	2	15	13139	159	9.59876371466089	0	1.0	971.2714049965144	0.0			0	1.0	1	0	1.0	0	828	1	1	1	new
2	2	2	16	36911	485	9.598809951101428	1	1.0	832.0413700130302	0.0	47.0		1	1.0	0	1	2.0	0	829	1	0	2	easy
2	2	2	17	49660	3127	9.598856311175041	0	1.0	1307.0793119986774	0.0			0	1.0	1	0	1.0	0	830	0	0	0	unknown
2	2	2	18	13945	9744	9.598902545403687	0	1.0	1305.0844770041294	0.0			0	1.0	1	0	1.0	0	831	0	0	0	unknown
2	2	2	19	27787	3412	9.59894889651332	0	1.0	1248.1514530081768	0.0			0	1.0	1	0	1.0	0	832	0	0	0	unknown
2	2	2	20	19443	9461	9.598995124339126	0	1.0	1372.8567009966355	0.0			0	1.0	1	0	1.0	0	833	0	0	0	unknown
2	2	2	21	16669	4620	9.599087722599506	1	0.0	1065.0292719947174	0.0	181.0		0	1.0	1	0	1.0	0	834	0	0	0	unknown
2	2	2	22	28712	4250	9.599134086747652	0	1.0	1104.588632006198	0.0			0	1.0	1	0	1.0	0	835	0	0	0	unknown
2	2	2	23	23580	8816	9.599180306540802	1	0.0	1490.0818789901675	0.0	272.0		0	1.0	1	0	1.0	0	836	0	0	0	unknown
2	2	2	24	17039	2587	9.59922668314539	1	1.0	746.7017690069042	0.0	52.0		1	1.0	0	1	2.0	0	837	0	0	0	unknown
2	2	2	25	62021	7627	9.59927289665211	0	1.0	960.4105030011852	0.0			0	1.0	1	0	1.0	0	838	0	0	0	unknown
2	2	2	26	25455	327	9.599319279077463	0	1.0	3925.412929005688	1.0			0	1.0	1	1	1.0	0	839	1	0	1	new
2	2	2	27	41049	7054	9.599365484551527	0	1.0	1902.2970229998464	0.0			0	1.0	1	0	1.0	0	840	0	0	0	unknown
2	2	2	28	50639	6637	9.599411882110871	0	0.0	2054.690118995495	0.0			0	0.0	0	1	2.0	0	841	0	0	0	unknown
2	2	2	29	5635	4945	9.59945807501208	0	1.0	1327.7354239980923	0.0			0	1.0	1	0	1.0	0	842	0	0	0	unknown
2	2	2	30	38973	3524	9.59950437687803	0	1.0	842.4896910000825	0.0			0	1.0	1	0	1.0	0	843	0	0	0	unknown
2	2	2	31	19655	8854	9.599550556158649	0	1.0	1137.535570000182	0.0			0	1.0	1	0	1.0	0	844	0	0	0	unknown
2	2	2	32	20005	3822	9.599596852785908	1	1.0	1114.810879997094	0.0	123.0	172.0	0	0.0	0	1	2.0	0	845	0	0	0	unknown
2	2	2	33	14529	173	9.599643153371288	1	1.0	1126.0707449982874	0.0	120.0	244.0	0	0.0	0	1	2.0	0	846	1	0	3	hard
2	2	2	34	23747	3975	9.599735737778246	0	1.0	787.7613500022561	0.0			0	1.0	1	0	1.0	0	847	0	0	0	unknown
2	2	2	35	27535	8077	9.599782029283233	0	1.0	1303.0343990103574	0.0			0	1.0	1	0	1.0	0	848	0	0	0	unknown
2	2	2	36	15952	3935	9.599828320089728	0	0.0	2449.5652579935268	0.0			0	0.0	0	1	2.0	0	849	0	0	0	unknown
2	2	2	37	44589	5208	9.59987462335266	1	1.0	782.935703988187	0.0	56.0		1	1.0	0	1	2.0	0	850	0	0	0	unknown
2	2	2	38	10542	3179	9.599920922191812	0	1.0	737.588333999156	0.0			0	1.0	1	0	1.0	0	851	0	0	0	unknown
2	2	2	39	6178	1189	9.599967208807357	0	1.0	1485.4107830033172	0.0			0	1.0	1	0	1.0	0	852	0	0	0	unknown
2	2	2	40	21914	8403	9.60001350333914	0	1.0	929.866102000233	0.0			0	1.0	1	0	1.0	0	853	0	0	0	unknown
2	2	2	41	39953	1776	9.600059800082816	0	1.0	1250.4522800009	0.0			0	1.0	1	0	1.0	0	854	0	0	0	unknown
2	2	2	42	54895	4187	9.600106089375911	0	1.0	1472.6288130041212	0.0			0	1.0	1	0	1.0	0	855	0	0	0	unknown
2	2	2	43	8676	3769	9.600152387400156	0	1.0	1502.4781369866105	0.0			0	1.0	1	0	1.0	0	856	0	0	0	unknown
2	2	2	44	17429	4812	9.600244975648819	0	1.0	1146.8684309948003	0.0			0	1.0	1	0	1.0	0	857	0	0	0	unknown
2	2	2	45	17981	6635	9.600291270995513	0	0.0	2666.3632269919617	1.0			0	0.0	1	1	2.0	0	858	0	0	0	unknown
2	2	2	46	45421	1490	9.600337560405023	1	1.0	2682.4358129961183	0.0	157.0		0	0.0	0	1	2.0	0	859	0	0	0	unknown
2	2	2	47	56971	9571	9.600383854820391	1	0.0	921.0596790071578	0.0	280.0		0	1.0	1	0	1.0	0	860	0	0	0	unknown
2	2	2	48	69388	1386	9.600430153310299	1	1.0	959.1609169874573	0.0	83.0	162.0	1	1.0	0	1	2.0	0	861	0	0	0	unknown
2	2	2	49	1262	5896	9.600476441555656	1	1.0	1923.026182004833	0.0	331.0		0	0.0	0	1	2.0	0	862	0	0	0	unknown
2	2	2	50	14692	3371	9.600522736203857	0	1.0	1238.9117440034167	0.0			0	1.0	1	0	1.0	0	863	0	0	0	unknown
2	2	2	51	64994	8303	9.600569035159426	0	1.0	1455.0532430002932	0.0			0	1.0	1	0	1.0	0	864	0	0	0	unknown
2	2	2	52	33090	8258	9.600615321774969	0	1.0	1291.202838998288	0.0			0	1.0	1	0	1.0	0	865	0	0	0	unknown
2	2	2	53	63190	2854	9.600661622942424	0	1.0	1060.6263119989308	0.0			0	1.0	1	0	1.0	0	866	0	0	0	unknown
2	2	2	54	2973	5745	9.600754204206169	1	1.0	976.7635650059674	0.0	229.0	344.0	0	0.0	0	1	2.0	0	867	0	0	0	unknown
2	2	2	55	47308	8175	9.600800500833428	1	0.0	1764.4735369976843	0.0	449.0		0	1.0	1	0	1.0	0	868	0	0	0	unknown
2	2	2	56	9751	6851	9.600846803630702	0	1.0	1253.3715789904816	0.0			0	1.0	1	0	1.0	0	869	0	0	0	unknown
2	2	2	57	9231	108	9.600893094902858	0	1.0	977.6543119951384	0.0			0	1.0	1	0	1.0	0	870	1	0	1	new
2	2	2	58	14595	175	9.6009393845452	1	1.0	1816.0519219964044	0.0	117.0		1	1.0	0	1	2.0	0	871	1	0	2	easy
2	2	2	59	9751	6851	9.600985683733597	1	1.0	724.4517489889405	0.0	2.0		1	1.0	0	1	2.0	0	872	0	0	0	unknown
2	2	2	60	64994	8303	9.601031881407833	1	1.0	758.8938859989865	0.0	8.0		1	1.0	0	1	2.0	0	873	0	0	0	unknown
2	2	2	61	50377	3663	9.601078166742807	0	1.0	1158.7051980022807	0.0			0	1.0	1	0	1.0	0	874	0	0	0	unknown
2	2	2	62	42978	1826	9.601124469423665	1	1.0	867.8887880087132	0.0	105.0		1	1.0	0	1	2.0	0	875	0	0	0	unknown
2	2	3	1	61749	848	9.60262524941936	1	1.0	1442.4425659963163	0.0	72.0		1	1.0	0	1	2.0	0	876	1	0	2	easy
2	2	3	2	49061	1143	9.602671601460317	0	1.0	929.8134540003955	0.0			0	1.0	1	0	1.0	0	877	0	0	0	unknown
2	2	3	3	30102	2020	9.602717832429335	0	1.0	1278.9472220028983	0.0			0	1.0	1	0	1.0	0	878	0	0	0	unknown
2	2	3	4	17377	3783	9.60276420135051	0	0.0	1603.2091169909108	0.0			0	0.0	0	1	2.0	0	879	0	0	0	unknown
2	2	3	5	17429	4812	9.602810417185536	1	1.0	788.2292430003872	0.0	22.0		1	1.0	0	1	2.0	0	880	0	0	0	unknown
2	2	3	6	9049	106	9.602856796584092	0	1.0	1139.7475600097096	0.0			0	1.0	1	0	1.0	0	881	1	0	1	new
2	2	3	7	31790	4361	9.602903007995335	0	1.0	1210.0188659969715	0.0			0	1.0	1	0	1.0	0	882	0	0	0	unknown
2	2	3	8	16433	1626	9.60294939309824	0	1.0	1080.5096859985497	0.0			0	1.0	1	0	1.0	0	883	0	0	0	unknown
2	2	3	9	27685	3996	9.6029955977574	1	1.0	1038.513564009918	0.0	568.0		0	0.0	0	1	2.0	0	884	0	0	0	unknown
2	2	3	10	37390	4292	9.603041989263149	0	1.0	953.8944119994993	0.0			0	1.0	1	0	1.0	0	885	0	0	0	unknown
2	2	3	11	9081	8706	9.60313458519522	1	1.0	2520.832927999436	1.0	204.0		0	0.0	1	1	2.0	0	886	0	0	0	unknown
2	2	3	12	18892	1420	9.603180769481696	0	1.0	1968.89055200154	0.0			0	1.0	1	0	1.0	0	887	0	0	0	unknown
2	2	3	13	55399	9893	9.60322718124371	0	1.0	1367.8602069994668	0.0			0	1.0	2	0	1.0	0	888	0	0	0	unknown
2	2	3	14	72854	7841	9.603273365180941	0	1.0	1573.5869060008552	0.0			0	1.0	1	0	1.0	0	889	0	0	0	unknown
2	2	3	15	14858	1803	9.603319776710121	0	1.0	1259.9732730013784	0.0			0	1.0	1	0	1.0	0	890	0	0	0	unknown
2	2	3	16	53321	1040	9.603365954477342	1	1.0	2114.039788008085	1.0	232.0		0	0.0	1	2	2.0	0	891	0	0	0	unknown
2	2	3	17	66193	3284	9.603412242024206	1	1.0	1474.6026639913907	0.0	761.0		0	0.0	0	1	2.0	0	892	0	0	0	unknown
2	2	3	18	18412	1498	9.603458545636384	0	1.0	937.8160829946864	0.0			0	1.0	1	0	1.0	0	893	0	0	0	unknown
2	2	3	19	38269	2485	9.603504774393512	0	1.0	2225.7147360069207	0.0			0	1.0	1	0	1.0	0	894	0	0	0	unknown
2	2	3	20	51435	9008	9.603597341571005	1	1.0	1258.3035270072287	1.0	98.0	291.0	1	1.0	1	1	2.0	0	895	0	0	0	unknown
2	2	3	21	62791	9484	9.60364362283144	1	1.0	1605.5770669918275	0.0	195.0	567.0	0	0.0	0	1	2.0	0	896	0	0	0	unknown
2	2	3	22	44350	1994	9.603689911658877	1	1.0	1931.307798004127	0.0	199.0		0	0.0	0	1	2.0	0	897	0	0	0	unknown
2	2	3	23	46000	625	9.603736210614441	0	1.0	1327.3485329991672	0.0			0	1.0	1	0	1.0	0	898	1	0	1	new
2	2	3	24	44176	8819	9.603782506892456	1	0.0	1860.6834829988657	0.0	147.0		1	0.0	1	0	1.0	0	899	0	0	0	unknown
2	2	3	25	52333	7020	9.60382879700046	1	0.0	1506.2195470090955	0.0	426.0		0	1.0	1	0	1.0	0	900	0	0	0	unknown
2	2	3	26	42852	570	9.603875089087524	0	1.0	847.192917004577	0.0			0	1.0	1	0	1.0	0	901	1	1	1	new
2	2	3	27	34887	7066	9.603921390720643	0	1.0	951.6254889895208	0.0			0	1.0	1	0	1.0	0	902	0	0	0	unknown
2	2	3	28	24899	7410	9.603967674192972	0	1.0	964.9539140082195	0.0			0	1.0	1	0	1.0	0	903	0	0	0	unknown
2	2	3	29	61675	7306	9.604013975826092	0	1.0	1365.4520669952035	0.0			0	1.0	1	0	1.0	0	904	0	0	0	unknown
2	2	3	30	27766	7785	9.604106562677769	1	1.0	1044.28996599745	0.0	90.0		1	1.0	0	1	2.0	0	905	0	0	0	unknown
2	2	3	31	40209	4152	9.604152850108221	1	1.0	1206.6744889889378	0.0	148.0		1	1.0	0	1	2.0	0	906	0	0	0	unknown
2	2	3	32	3321	1645	9.604199153138323	1	0.0	902.5241659983294	0.0	682.0		0	1.0	1	0	1.0	0	907	0	0	0	unknown
2	2	3	33	22516	276	9.604245447204448	0	1.0	2019.2582330055304	0.0			0	1.0	1	0	1.0	0	908	1	0	1	new
2	2	3	34	50273	1475	9.604291741037741	0	1.0	2119.281345003401	0.0			0	1.0	1	0	1.0	0	909	0	0	0	unknown
2	2	3	35	13783	1102	9.604338037665002	0	1.0	1252.8428660007191	0.0			0	1.0	1	0	1.0	0	910	0	0	0	unknown
2	2	3	36	17429	4812	9.604384320904499	1	1.0	669.6228319924558	0.0	30.0	53.0	1	1.0	0	1	2.0	0	911	0	0	0	unknown
2	2	3	37	40209	4152	9.604430620092897	1	1.0	838.3955919998699	0.0	5.0	154.0	1	1.0	0	1	2.0	0	912	0	0	0	unknown
2	2	3	38	36911	485	9.604476917767895	1	1.0	789.2574819998117	0.0	83.0	131.0	1	1.0	0	1	2.0	0	913	1	0	3	easy
2	2	3	39	40841	534	9.604523202753626	0	0.0	1006.174825000926	0.0			0	0.0	0	1	2.0	0	914	1	0	1	new
2	2	3	40	7157	7561	9.604569501010701	1	1.0	1455.6384489987977	0.0	173.0	296.0	0	0.0	0	1	2.0	0	915	0	0	0	unknown
2	2	3	41	37155	7116	9.604615799384192	0	1.0	1043.272477996652	0.0			0	1.0	1	0	1.0	0	916	0	0	0	unknown
2	2	3	42	56036	4035	9.604708288447	0	1.0	1460.3824439982416	0.0			0	1.0	1	0	1.0	0	917	0	0	0	unknown
2	2	3	43	32780	6077	9.604754583793692	0	1.0	1261.9560830062255	0.0			0	1.0	1	0	1.0	0	918	0	0	0	unknown
2	2	3	44	48157	4593	9.604800881003028	0	1.0	1177.2889290004969	0.0			0	1.0	1	0	1.0	0	919	0	0	0	unknown
2	2	3	45	46690	4442	9.604847170645373	0	1.0	1776.925440004561	0.0			0	1.0	1	0	1.0	0	920	0	0	0	unknown
2	2	3	46	48997	9130	9.604893459822051	1	1.0	716.6412960068556	0.0	137.0		1	1.0	0	1	2.0	0	921	0	0	0	unknown
2	2	3	47	61749	848	9.604939762037247	1	1.0	826.0148959961952	0.0	45.0	118.0	1	1.0	0	1	2.0	0	922	1	0	3	easy
2	2	3	48	61558	5221	9.604986056452615	0	1.0	1080.9490749961697	0.0			0	1.0	1	0	1.0	0	923	0	0	0	unknown
2	2	3	49	44708	5313	9.605032353894783	1	1.0	1627.91493399709	0.0	133.0	163.0	1	1.0	0	1	2.0	0	924	0	0	0	unknown
2	2	3	50	62320	4893	9.605078637599943	0	1.0	1251.0058329935418	0.0			0	1.0	1	0	1.0	0	925	0	0	0	unknown
2	2	3	51	9028	105	9.605124934460035	0	1.0	1338.4537719975924	0.0			0	1.0	1	0	1.0	0	926	1	0	1	new
2	2	3	52	34793	1937	9.605171226197854	0	1.0	1161.7644950019894	0.0			0	1.0	1	0	1.0	0	927	0	0	0	unknown
2	2	3	53	68740	4900	9.605217527830973	1	1.0	1013.9713009994013	0.0	802.0		0	0.0	0	1	2.0	0	928	0	0	0	unknown
2	2	3	54	9751	6851	9.605310115381146	1	1.0	970.9804690064627	0.0	56.0	59.0	1	1.0	0	1	2.0	0	929	0	0	0	unknown
2	2	3	55	17597	6265	9.605356409912929	0	1.0	770.7252710097235	0.0			0	1.0	1	0	1.0	0	930	0	0	0	unknown
2	2	3	56	12000	1069	9.605402695480734	1	1.0	1425.6797560083214	0.0	276.0		0	0.0	0	1	2.0	0	931	0	0	0	unknown
2	2	3	57	29672	2195	9.605449000373481	1	1.0	1602.764871000545	0.0	164.0		1	1.0	0	1	2.0	0	932	0	0	0	unknown
2	2	3	58	24077	2484	9.605495292693377	0	1.0	1522.5063640100416	0.0			0	1.0	1	0	1.0	0	933	0	0	0	unknown
2	2	3	59	51190	3699	9.605541585828176	0	1.0	1602.2107960016	0.0			0	1.0	1	0	1.0	0	934	0	0	0	unknown
2	2	3	60	54114	3940	9.605587874539196	0	1.0	981.5406199923018	0.0			0	1.0	1	0	1.0	0	935	0	0	0	unknown
2	2	3	61	41049	7054	9.605634174891748	1	0.0	1784.2064930009656	0.0	95.0		1	0.0	1	0	1.0	0	936	0	0	0	unknown
2	2	3	62	239	2492	9.60568046278786	0	1.0	1565.8217910095116	0.0			0	1.0	1	0	1.0	0	937	0	0	0	unknown
2	2	3	63	6190	7629	9.605726756970398	1	0.0	2165.9012590098428	0.0	112.0		1	0.0	1	0	1.0	0	938	0	0	0	unknown
2	2	4	1	53481	5273	9.607365945354104	1	0.0	1963.731039999402	0.0	247.0		0	1.0	1	0	1.0	0	939	0	0	0	unknown
2	2	4	2	22998	4467	9.607412239653058	0	1.0	1102.4598040094131	0.0			0	1.0	1	0	1.0	0	940	0	0	0	unknown
2	2	4	3	56743	5604	9.607458530575968	1	1.0	1380.7334409939358	0.0	134.0		1	1.0	0	1	2.0	0	941	0	0	0	unknown
2	2	4	4	7221	4127	9.607504841289485	1	1.0	726.8480280035875	0.0	120.0		1	1.0	0	1	2.0	0	942	0	0	0	unknown
2	2	4	5	16559	5242	9.60755111486651	0	1.0	1003.3042159921024	0.0			0	1.0	1	0	1.0	0	943	0	0	0	unknown
2	2	4	6	53892	742	9.607597428257575	0	1.0	1401.586606996716	0.0			0	1.0	1	0	1.0	0	944	1	0	1	new
2	2	4	7	29083	5995	9.607643713592552	0	1.0	1244.6573469933355	0.0			0	1.0	1	0	1.0	0	945	0	0	0	unknown
2	2	4	8	33369	6183	9.607690001837907	0	1.0	1258.8810219895095	0.0			0	1.0	1	0	1.0	0	946	0	0	0	unknown
2	2	4	9	42431	3974	9.607736299280077	0	1.0	1485.482062009396	0.0			0	1.0	1	0	1.0	0	947	0	0	0	unknown
2	2	4	10	619	3927	9.60782888601534	0	1.0	1036.2895170110276	0.0			0	1.0	1	0	1.0	0	948	0	0	0	unknown
2	2	4	11	71218	9913	9.607875179965047	1	1.0	1566.016397002386	0.0	874.0		0	0.0	0	1	2.0	0	949	0	0	0	unknown
2	2	4	12	34887	7066	9.607921478222124	1	1.0	722.759918004158	0.0	47.0		1	1.0	0	1	2.0	0	950	0	0	0	unknown
2	2	4	13	61874	853	9.607967761461625	0	1.0	1064.3774130003292	0.0			0	1.0	1	0	1.0	0	951	1	1	1	new
2	2	4	14	19050	7979	9.608014061232096	0	1.0	1169.3061760015553	0.0			0	1.0	1	0	1.0	0	952	0	0	0	unknown
2	2	4	15	37252	2247	9.608060353202744	0	0.0	1252.0374199957587	0.0			0	0.0	0	1	2.0	0	953	0	0	0	unknown
2	2	4	16	26354	4061	9.60810665145982	1	0.0	1162.1767600008752	0.0	855.0		0	1.0	1	0	1.0	0	954	0	0	0	unknown
2	2	4	17	45158	7697	9.608152938424608	1	1.0	1308.0703820014603	0.0	392.0		0	0.0	0	1	2.0	0	955	0	0	0	unknown
2	2	4	18	57937	2287	9.608199234935457	0	1.0	1206.2137570028426	0.0			0	1.0	1	0	1.0	0	956	0	0	0	unknown
2	2	4	19	72651	9977	9.608291827607902	0	1.0	1422.4610329983989	0.0			0	1.0	1	0	1.0	0	957	0	0	0	unknown
2	2	4	20	47258	6728	9.60833811853081	0	1.0	2124.3258959875675	0.0			0	1.0	1	0	1.0	0	958	0	0	0	unknown
2	2	4	21	41443	5811	9.608384412713347	0	1.0	1679.9915009905817	0.0			0	1.0	1	0	1.0	0	959	0	0	0	unknown
2	2	4	22	12405	3586	9.608430705848148	0	1.0	920.0996699946701	0.0			0	1.0	1	0	1.0	0	960	0	0	0	unknown
2	2	4	23	65086	2584	9.608476908877492	0	1.0	1336.6950710042147	0.0			0	1.0	1	0	1.0	0	961	0	0	0	unknown
