SUBJECT	SESSION	RUN	TRIAL	73KID	10KID	TIME	ISOLD	ISCORRECT	RT	CHANGEMIND	MEMORYRECENT	MEMORYFIRST	ISOLDCURRENT	ISCORRECTCURRENT	TOTAL1	TOTAL2	BUTTON	MISSINGDATA	trial_full	is_shared1000	is_special100	shared1000_repNum	presentation_type
7	1	1	1	46003	626	0.5960159900132566	0	1.0	1653.6348990002807	0.0			0	1.0	1	0	1.0	0	1	1	0	1	new
7	1	1	2	16507	5013	0.5960622851271182	0	1.0	620.8910159994048	0.0			0	1.0	1	0	1.0	0	2	0	0	0	unknown
7	1	1	3	9387	4850	0.5961085797753185	0	1.0	551.2955780004631	0.0			0	1.0	1	0	1.0	0	3	0	0	0	unknown
7	1	1	4	19212	8823	0.5961548839695751	0	1.0	624.6852459998992	0.0			0	1.0	1	0	1.0	0	4	0	0	0	unknown
7	1	1	5	19178	9538	0.5962011666269972	0	0.0	828.5446109994153	0.0			0	0.0	0	1	2.0	0	5	0	0	0	unknown
7	1	1	6	71795	6061	0.5962474718689919	0	1.0	547.1670019996964	0.0			0	1.0	1	0	1.0	0	6	0	0	0	unknown
7	1	1	7	24408	4421	0.5962937488220632	0	1.0	534.3910209994647	0.0			0	1.0	1	0	1.0	0	7	0	0	0	unknown
7	1	1	8	47969	3858	0.596340053481981	0	1.0	659.6420320001926	0.0			0	1.0	1	0	1.0	0	8	0	0	0	unknown
7	1	1	9	851	8124	0.5963863459182903	0	1.0	516.4932210000188	0.0			0	1.0	1	0	1.0	0	9	0	0	0	unknown
7	1	1	10	38353	4843	0.5964326484827324	0	1.0	487.6838499994847	0.0			0	1.0	1	0	1.0	0	10	0	0	0	unknown
7	1	1	11	64761	7941	0.596478936378844	0	1.0	644.1744680005286	0.0			0	1.0	1	0	1.0	0	11	0	0	0	unknown
7	1	1	12	55696	4523	0.5965252323076128	0	1.0	642.2579950003637	0.0			0	1.0	1	0	1.0	0	12	0	0	0	unknown
7	1	1	13	23188	1070	0.5966178127564489	0	1.0	602.5427279992073	0.0			0	1.0	1	0	1.0	0	13	0	0	0	unknown
7	1	1	14	17279	9588	0.5966641041450202	0	1.0	522.7525629998128	0.0			0	1.0	1	0	1.0	0	14	0	0	0	unknown
7	1	1	15	28972	4623	0.5967103956500068	0	1.0	426.4578860002075	0.0			0	1.0	1	0	1.0	0	15	0	0	0	unknown
7	1	1	16	31984	3185	0.5967566955368965	0	1.0	436.2369049995322	0.0			0	1.0	1	0	1.0	0	16	0	0	0	unknown
7	1	1	17	71455	4586	0.5968029904179275	0	1.0	686.7018460006875	0.0			0	1.0	1	0	1.0	0	17	0	0	0	unknown
7	1	1	18	9826	1009	0.5968492836691439	0	1.0	502.771391999886	0.0			0	1.0	1	0	1.0	0	18	0	0	0	unknown
7	1	1	19	32184	8634	0.596895571798086	0	1.0	463.1188800003656	0.0			0	1.0	1	0	1.0	0	19	0	0	0	unknown
7	1	1	20	9091	9648	0.5969418674940243	0	1.0	949.9597060002995	0.0			0	1.0	1	0	1.0	0	20	0	0	0	unknown
7	1	1	21	70197	9425	0.59698816773016	0	1.0	469.83407199968497	0.0			0	1.0	1	0	1.0	0	21	0	0	0	unknown
7	1	1	22	29271	1344	0.597034363541752	0	1.0	692.2899410001264	0.0			0	1.0	1	0	1.0	0	22	0	0	0	unknown
7	1	1	23	68173	7441	0.5971269516739994	0	1.0	485.0569170002928	0.0			0	1.0	1	0	1.0	0	23	0	0	0	unknown
7	1	1	24	44722	3902	0.5971732453908771	0	1.0	809.040707999884	0.0			0	1.0	1	0	1.0	0	24	0	0	0	unknown
7	1	1	25	48216	8795	0.5972195336362347	0	1.0	792.5452870003937	0.0			0	1.0	1	0	1.0	0	25	0	0	0	unknown
7	1	1	26	13227	1840	0.5972658360842615	0	1.0	902.0285689994125	0.0			0	1.0	1	0	1.0	0	26	0	0	0	unknown
7	1	1	27	52668	1356	0.597312121768482	0	1.0	1320.8914830001959	0.0			0	1.0	1	0	1.0	0	27	0	0	0	unknown
7	1	1	28	59076	5506	0.5973584194434806	0	1.0	984.1431239992745	0.0			0	1.0	1	0	1.0	0	28	0	0	0	unknown
7	1	1	29	48618	666	0.5974047105992212	0	1.0	1106.086296000285	0.0			0	1.0	1	0	1.0	0	29	1	0	1	new
7	1	1	30	40332	8240	0.5974510092055425	0	1.0	776.2796789993444	0.0			0	1.0	1	0	1.0	0	30	0	0	0	unknown
7	1	1	31	64495	7232	0.5974972982658073	0	1.0	903.2564369999818	0.0			0	1.0	1	0	1.0	0	31	0	0	0	unknown
7	1	1	32	24568	5691	0.5975435896543785	0	1.0	971.9705650004472	0.0			0	1.0	1	0	1.0	0	32	0	0	0	unknown
7	1	1	33	50870	6661	0.5975898853503167	0	1.0	1007.5295880005796	0.0			0	1.0	1	0	1.0	0	33	0	0	0	unknown
7	1	1	34	36703	2400	0.597636186867021	0	1.0	1432.7490200003012	0.0			0	1.0	1	0	1.0	0	34	0	0	0	unknown
7	1	1	35	23755	2252	0.59772876475472	0	1.0	509.26681100008864	0.0			0	1.0	1	0	1.0	0	35	0	0	0	unknown
7	1	1	36	44981	612	0.5977750609163194	0	1.0	928.137371000048	0.0			0	1.0	1	0	1.0	0	36	1	0	1	new
7	1	1	37	49113	1609	0.5978213655762374	0	1.0	2022.2494260005988	0.0			0	1.0	1	0	1.0	0	37	0	0	0	unknown
7	1	1	38	10891	3579	0.5978676574304699	0	1.0	1083.1968519996735	0.0			0	1.0	1	0	1.0	0	38	0	0	0	unknown
7	1	1	39	14366	1703	0.5979139558039605	0	1.0	1057.4465760000749	0.0			0	1.0	1	0	1.0	0	39	0	0	0	unknown
7	1	1	40	53264	9976	0.5979602426523342	0	1.0	735.5766939999739	0.0			0	1.0	1	0	1.0	0	40	0	0	0	unknown
7	1	1	41	17880	5770	0.5980065400945022	0	1.0	588.5275330001605	0.0			0	1.0	1	0	1.0	0	41	0	0	0	unknown
7	1	1	42	35151	8748	0.5980528253130614	0	1.0	672.2972239995215	0.0			0	1.0	1	0	1.0	0	42	0	0	0	unknown
7	1	1	43	26533	9202	0.5980991281103342	0	1.0	1165.1321680001274	0.0			0	1.0	1	0	1.0	0	43	0	0	0	unknown
7	1	1	44	820	3123	0.598145415307954	0	1.0	665.8143969998491	0.0			0	1.0	1	0	1.0	0	44	0	0	0	unknown
7	1	1	45	32626	436	0.5981917175231501	0	1.0	651.2317970000367	0.0			0	1.0	1	0	1.0	0	45	1	0	1	new
7	1	1	46	71455	4586	0.5982843051897361	1	1.0	950.8095040000624	0.0	28.0		1	1.0	0	1	2.0	0	46	0	0	0	unknown
7	1	1	47	54304	1499	0.5983305019326508	0	1.0	756.6022279997924	0.0			0	1.0	1	0	1.0	0	47	0	0	0	unknown
7	1	1	48	15512	2872	0.5983767909929156	0	1.0	802.8451329992095	0.0			0	1.0	1	0	1.0	0	48	0	0	0	unknown
7	1	1	49	67369	9173	0.5984230914618819	0	1.0	872.4725719994238	0.0			0	1.0	1	0	1.0	0	49	0	0	0	unknown
7	1	1	50	71952	2665	0.5984693753998725	0	1.0	1016.76584300003	0.0			0	1.0	1	0	1.0	0	50	0	0	0	unknown
7	1	1	51	33049	1045	0.5985156695824116	0	1.0	531.3225429999875	0.0			0	1.0	1	0	1.0	0	51	0	0	0	unknown
7	1	1	52	38801	1974	0.5985619708662852	0	1.0	1064.5192079991828	0.0			0	1.0	1	0	1.0	0	52	0	0	0	unknown
7	1	1	53	40814	2268	0.5986082656309007	0	1.0	614.4692369998666	0.0			0	1.0	1	0	1.0	0	53	0	0	0	unknown
7	1	1	54	52561	7771	0.5986545552732422	0	1.0	650.5525339998712	0.0			0	1.0	1	0	1.0	0	54	0	0	0	unknown
7	1	1	55	7026	6336	0.598747145733796	0	1.0	1032.546266000281	0.0			0	1.0	1	0	1.0	0	55	0	0	0	unknown
7	1	1	56	53053	727	0.5987934458535163	0	1.0	1042.7264309992097	0.0			0	1.0	1	0	1.0	0	56	1	1	1	new
7	1	1	57	4931	40	0.5988397317705675	0	1.0	692.1783529996901	0.0			0	1.0	1	0	1.0	0	57	1	0	1	new
7	1	1	58	63538	6000	0.598886021412909	0	1.0	1404.826129999492	0.0			0	1.0	1	0	1.0	0	58	0	0	0	unknown
7	1	1	59	71724	7046	0.5989323249086737	0	1.0	831.3228719998733	0.0			0	1.0	1	0	1.0	0	59	0	0	0	unknown
7	1	1	60	52712	1607	0.5989786128047853	0	1.0	626.7607009995118	0.0			0	1.0	1	0	1.0	0	60	0	0	0	unknown
7	1	1	61	58286	2132	0.5990249053575099	0	1.0	867.527395000252	0.0			0	1.0	1	0	1.0	0	61	0	0	0	unknown
7	1	1	62	33362	5352	0.5990712018683552	0	1.0	948.0381379999016	0.0			0	1.0	1	0	1.0	0	62	0	0	0	unknown
7	1	1	63	14724	2514	0.5991174938390031	0	1.0	2016.4298780000531	0.0			0	1.0	1	0	1.0	0	63	0	0	0	unknown
7	1	2	1	55584	5730	0.6007442462723702	0	1.0	722.6345729995955	0.0			0	1.0	1	0	1.0	0	64	0	0	0	unknown
7	1	2	2	7340	4135	0.6007905538426712	0	1.0	858.6775110006782	0.0			0	1.0	1	0	1.0	0	65	0	0	0	unknown
7	1	2	3	71887	5169	0.6008368382463231	0	1.0	625.6354669994835	0.0			0	1.0	1	0	1.0	0	66	0	0	0	unknown
7	1	2	4	62137	5821	0.6008830281207337	0	1.0	719.2644979995748	0.0			0	1.0	1	0	1.0	0	67	0	0	0	unknown
7	1	2	5	65272	8842	0.6009293216047809	0	1.0	651.2576590002936	0.0			0	1.0	1	0	1.0	0	68	0	0	0	unknown
7	1	2	6	7340	4135	0.600975623470731	1	1.0	649.0107749996241	0.0	3.0		1	1.0	0	1	2.0	0	69	0	0	0	unknown
7	1	2	7	4862	4990	0.6010219083400443	0	1.0	649.7402499999225	0.0			0	1.0	1	0	1.0	0	70	0	0	0	unknown
7	1	2	8	29052	9955	0.6010682050837203	0	1.0	1414.6938149997368	0.0			0	1.0	1	0	1.0	0	71	0	0	0	unknown
7	1	2	9	37875	7331	0.6011145018273965	0	1.0	705.0252959998033	0.0			0	1.0	1	0	1.0	0	72	0	0	0	unknown
7	1	2	10	11884	3470	0.6011607944965363	0	1.0	1056.612113000483	0.0			0	1.0	1	0	1.0	0	73	0	0	0	unknown
7	1	2	11	4198	9913	0.6012070821598172	0	1.0	823.1347889995958	0.0			0	1.0	1	0	1.0	0	74	0	0	0	unknown
7	1	2	12	61138	3207	0.6012996790232136	0	1.0	456.5070389999164	0.0			0	1.0	1	0	1.0	0	75	0	0	0	unknown
7	1	2	13	47757	5799	0.6013459701789543	0	1.0	727.8585740004928	0.0			0	1.0	1	0	1.0	0	76	0	0	0	unknown
7	1	2	14	4634	4068	0.6013922666897997	0	1.0	515.4956690003019	0.0			0	1.0	1	0	1.0	0	77	0	0	0	unknown
7	1	2	15	1766	2204	0.6014385594753549	0	1.0	723.2278689998567	0.0			0	1.0	1	0	1.0	0	78	0	0	0	unknown
7	1	2	16	27329	7081	0.6014848535414785	0	1.0	510.9227379998629	0.0			0	1.0	1	0	1.0	0	79	0	0	0	unknown
7	1	2	17	37067	3632	0.6015311477240175	0	1.0	817.1810789999654	0.0			0	1.0	1	0	1.0	0	80	0	0	0	unknown
7	1	2	18	68733	3444	0.6015774438856168	0	1.0	1207.378900000549	0.0			0	1.0	1	0	1.0	0	81	0	0	0	unknown
7	1	2	19	70389	2840	0.601623736671172	0	1.0	980.8039919998919	0.0			0	1.0	1	0	1.0	0	82	0	0	0	unknown
7	1	2	20	64910	1538	0.601670030853711	0	1.0	1159.9453079998057	0.0			0	1.0	1	0	1.0	0	83	0	0	0	unknown
7	1	2	21	62613	8951	0.6017626194516196	0	1.0	1229.3751400002293	0.0			0	1.0	1	0	1.0	0	84	0	0	0	unknown
7	1	2	22	39224	8009	0.6018089132849127	0	1.0	1291.8338760000552	0.0			0	1.0	1	0	1.0	0	85	0	0	0	unknown
7	1	2	23	60490	5772	0.6018552078166975	0	1.0	1130.7017159997483	0.0			0	1.0	1	0	1.0	0	86	0	0	0	unknown
7	1	2	24	183	5200	0.6019015025813133	0	1.0	1102.5045639999007	0.0			0	1.0	1	0	1.0	0	87	0	0	0	unknown
7	1	2	25	50306	7984	0.601947795250453	0	1.0	1263.1883559997732	0.0			0	1.0	1	0	1.0	0	88	0	0	0	unknown
7	1	2	26	28196	9865	0.6019940807018429	0	0.0	890.9112689998436	0.0			0	0.0	0	1	2.0	0	89	0	0	0	unknown
7	1	2	27	12911	7367	0.6020403772126883	0	1.0	729.9607959994319	0.0			0	1.0	1	0	1.0	0	90	0	0	0	unknown
7	1	2	28	32626	436	0.6020866071339696	1	1.0	779.9788429992985	0.0	45.0		1	1.0	0	1	2.0	0	91	1	0	2	easy
7	1	2	29	3970	3014	0.6021328680217266	0	1.0	1250.9150539999607	0.0			0	1.0	1	0	1.0	0	92	0	0	0	unknown
7	1	2	30	5331	3569	0.6021791695384308	0	1.0	866.4939079999385	0.0			0	1.0	1	0	1.0	0	93	0	0	0	unknown
7	1	2	31	64567	6871	0.6022717537125571	0	1.0	602.736470000309	0.0			0	1.0	1	0	1.0	0	94	0	0	0	unknown
7	1	2	32	65421	4263	0.6023180508054792	0	1.0	778.5865699997885	0.0			0	1.0	1	0	1.0	0	95	0	0	0	unknown
7	1	2	33	9747	3694	0.6023643452208489	0	1.0	1548.2814480001252	0.0			0	1.0	1	0	1.0	0	96	0	0	0	unknown
7	1	2	34	40291	5322	0.6024106440600007	0	1.0	1046.7102610000438	0.0			0	1.0	1	0	1.0	0	97	0	0	0	unknown
7	1	2	35	18731	4061	0.602456928929314	0	1.0	1442.1804610001343	0.0			0	1.0	1	0	1.0	0	98	0	0	0	unknown
7	1	2	36	68259	7985	0.6025032277684658	0	1.0	1604.1023630004927	0.0			0	1.0	1	0	1.0	0	99	0	0	0	unknown
7	1	2	37	69080	6041	0.6025495242793112	0	1.0	1003.3767719996832	0.0			0	1.0	1	0	1.0	0	100	0	0	0	unknown
7	1	2	38	63169	6142	0.6025958152022212	0	1.0	1310.3746679998949	0.0			0	1.0	1	0	1.0	0	101	0	0	0	unknown
7	1	2	39	65492	6843	0.6026421124115586	0	1.0	917.573982000249	0.0			0	1.0	1	0	1.0	0	102	0	0	0	unknown
7	1	2	40	59209	7442	0.6026884008897468	0	1.0	780.2183779995174	0.0			0	1.0	1	0	1.0	0	103	0	0	0	unknown
7	1	2	41	28108	1108	0.602780985762365	0	1.0	752.2799660000602	0.0			0	1.0	1	0	1.0	0	104	0	0	0	unknown
7	1	2	42	51882	9936	0.6028272887924686	0	1.0	1019.109424999442	0.0			0	1.0	1	0	1.0	0	105	0	0	0	unknown
7	1	2	43	27881	2757	0.602873578784056	0	1.0	969.2225420003523	0.0			0	1.0	1	0	1.0	0	106	0	0	0	unknown
7	1	2	44	11578	9658	0.602919875876978	0	1.0	935.9061499999369	0.0			0	1.0	1	0	1.0	0	107	0	0	0	unknown
7	1	2	45	71887	5169	0.602966169361025	1	1.0	1479.7683839997262	1.0	41.0		1	1.0	1	1	2.0	0	108	0	0	0	unknown
7	1	2	46	65479	3376	0.6030124657554551	0	1.0	1262.999622999814	0.0			0	1.0	1	0	1.0	0	109	0	0	0	unknown
7	1	2	47	25540	7287	0.6030587569111958	0	1.0	1903.3841979999124	0.0			0	1.0	1	0	1.0	0	110	0	0	0	unknown
7	1	2	48	59986	5363	0.6031050462042912	0	1.0	2352.0415140001205	0.0			0	1.0	1	0	1.0	0	111	0	0	0	unknown
7	1	2	49	61501	5834	0.6031513448106124	0	1.0	1262.762109000505	0.0			0	1.0	1	0	1.0	0	112	0	0	0	unknown
7	1	2	50	59825	6448	0.6031976413214579	0	1.0	924.7690940001122	0.0			0	1.0	1	0	1.0	0	113	0	0	0	unknown
7	1	2	51	61449	4186	0.6032439353875815	0	1.0	1028.2309300000632	0.0			0	1.0	1	0	1.0	0	114	0	0	0	unknown
7	1	2	52	17511	9715	0.6032902295701205	0	1.0	664.6124740000232	0.0			0	1.0	1	0	1.0	0	115	0	0	0	unknown
7	1	2	53	47684	1430	0.6033828184008598	0	1.0	1214.1463830002976	0.0			0	1.0	1	0	1.0	0	116	0	0	0	unknown
7	1	2	54	1208	9621	0.6034290154930204	0	1.0	1201.863647999744	0.0			0	1.0	1	0	1.0	0	117	0	0	0	unknown
7	1	2	55	63422	7112	0.6034753110725432	0	1.0	1124.324764999983	0.0			0	1.0	1	0	1.0	0	118	0	0	0	unknown
7	1	2	56	65074	9845	0.6035216035088524	0	1.0	1083.638286000678	0.0			0	1.0	1	0	1.0	0	119	0	0	0	unknown
7	1	2	57	20077	7473	0.6035678905900567	0	1.0	1292.9897739995795	0.0			0	1.0	1	0	1.0	0	120	0	0	0	unknown
7	1	2	58	6432	60	0.6036141883814707	0	1.0	1113.6742239996236	0.0			0	1.0	1	0	1.0	0	121	1	0	1	new
7	1	2	59	27881	2757	0.6036604776745662	1	1.0	1129.9058570002671	0.0	15.0		1	1.0	0	1	2.0	0	122	0	0	0	unknown
7	1	2	60	34063	2704	0.6037067809375002	0	1.0	1024.2698579995704	0.0			0	1.0	1	0	1.0	0	123	0	0	0	unknown
7	1	2	61	32184	8634	0.6037530747707933	1	1.0	2212.347858000612	1.0	104.0		1	1.0	1	1	2.0	0	124	0	0	0	unknown
7	1	2	62	30756	4900	0.6037993669742718	0	1.0	640.7452200000989	0.0			0	1.0	1	0	1.0	0	125	0	0	0	unknown
7	1	3	1	66892	7336	0.6054709461750462	0	1.0	1762.2085190005237	0.0			0	1.0	1	0	1.0	0	126	0	0	0	unknown
7	1	3	2	70336	970	0.6055172425694763	0	0.0	2172.181855999952	0.0			0	0.0	0	1	2.0	0	127	1	0	1	new
7	1	3	3	31051	4229	0.6055635368684306	0	1.0	806.407586000205	0.0			0	1.0	1	0	1.0	0	128	0	0	0	unknown
7	1	3	4	71692	3770	0.6056098393164575	0	1.0	1226.884104000419	0.0			0	1.0	1	0	1.0	0	129	0	0	0	unknown
7	1	3	5	68291	3284	0.6056561270961537	0	1.0	1072.2010990002673	0.0			0	1.0	1	0	1.0	0	130	0	0	0	unknown
7	1	3	6	69203	6316	0.6057024365290999	0	1.0	861.5622929992242	0.0			0	1.0	1	0	1.0	0	131	0	0	0	unknown
7	1	3	7	56198	1266	0.6057487118523567	0	1.0	619.08299300012	0.0			0	1.0	1	0	1.0	0	132	0	0	0	unknown
7	1	3	8	36577	479	0.6057950258255004	0	1.0	1026.022224999906	0.0			0	1.0	1	0	1.0	0	133	1	0	1	new
7	1	3	9	49721	6277	0.6058412990532815	0	1.0	952.0765180004672	0.0			0	1.0	1	0	1.0	0	134	0	0	0	unknown
7	1	3	10	11934	9754	0.6058876276947557	0	1.0	837.3200350006301	0.0			0	1.0	1	0	1.0	0	135	0	0	0	unknown
7	1	3	11	46256	7300	0.6059802178060635	0	1.0	882.1941850001166	0.0			0	1.0	1	0	1.0	0	136	0	0	0	unknown
7	1	3	12	3440	1104	0.6060264814877881	0	1.0	861.8613029993866	0.0			0	1.0	1	0	1.0	0	137	0	0	0	unknown
7	1	3	13	15124	7313	0.606072821188718	0	1.0	1052.2542480002812	0.0			0	1.0	1	0	1.0	0	138	0	0	0	unknown
7	1	3	14	23778	3250	0.6061190664768218	0	1.0	1022.7462120001292	0.0			0	1.0	1	0	1.0	0	139	0	0	0	unknown
7	1	3	15	46540	6726	0.6061654075747355	0	1.0	964.555171000029	0.0			0	1.0	1	0	1.0	0	140	0	0	0	unknown
7	1	3	16	3975	8054	0.6062116562388837	0	1.0	842.9691650007953	0.0			0	1.0	1	0	1.0	0	141	0	0	0	unknown
7	1	3	17	65407	7613	0.6062580050202085	0	1.0	1206.28115800082	0.0			0	1.0	1	0	1.0	0	142	0	0	0	unknown
7	1	3	18	54060	6236	0.6063042395981028	0	1.0	808.7783569999373	0.0			0	1.0	1	0	1.0	0	143	0	0	0	unknown
7	1	3	19	26081	2259	0.60635060549248	0	1.0	971.1864340006287	0.0			0	1.0	1	0	1.0	0	144	0	0	0	unknown
7	1	3	20	47865	3968	0.606396828778088	0	1.0	733.5993400001826	0.0			0	1.0	1	0	1.0	0	145	0	0	0	unknown
7	1	3	21	63893	2980	0.6064432041021063	0	1.0	1559.887420999985	0.0			0	1.0	1	0	1.0	0	146	0	0	0	unknown
7	1	3	22	932	9718	0.6064894256414844	0	1.0	809.5442280000498	0.0			0	1.0	1	0	1.0	0	147	0	0	0	unknown
7	1	3	23	19629	1550	0.6065357245970517	0	1.0	845.4683259997182	0.0			0	1.0	1	0	1.0	0	148	0	0	0	unknown
7	1	3	24	63893	2980	0.6065820077201352	1	1.0	702.7115840000988	0.0	2.0		1	1.0	0	1	2.0	0	149	0	0	0	unknown
7	1	3	25	65750	6274	0.6066745923599228	0	1.0	644.4754300000568	0.0			0	1.0	1	0	1.0	0	150	0	0	0	unknown
7	1	3	26	72122	6666	0.6067208958556874	0	1.0	954.4621479999475	0.0			0	1.0	1	0	1.0	0	151	0	0	0	unknown
7	1	3	27	39559	3580	0.6067671871278434	0	1.0	789.113117000852	0.0			0	1.0	1	0	1.0	0	152	0	0	0	unknown
7	1	3	28	57047	791	0.6068134859669952	0	1.0	801.0843530000784	0.0			0	1.0	1	0	1.0	0	153	1	0	1	new
7	1	3	29	52561	7771	0.6068597746780142	1	0.0	1609.101107999777	0.0	99.0		1	0.0	1	0	1.0	0	154	0	0	0	unknown
7	1	3	30	68259	7985	0.606906076776795	1	1.0	847.4643939998715	0.0	55.0		1	1.0	0	1	2.0	0	155	0	0	0	unknown
7	1	3	31	21272	5651	0.6069523555925115	0	1.0	1669.2005750001044	0.0			0	1.0	1	0	1.0	0	156	0	0	0	unknown
7	1	3	32	34894	4786	0.6069986633956432	0	1.0	772.4406429997542	0.0			0	1.0	1	0	1.0	0	157	0	0	0	unknown
7	1	3	33	68666	5910	0.6070448487298563	0	1.0	702.4596390001534	0.0			0	1.0	1	0	1.0	0	158	0	0	0	unknown
7	1	3	34	57793	6588	0.6070911485003307	0	1.0	1716.1414169995624	0.0			0	1.0	1	0	1.0	0	159	0	0	0	unknown
7	1	3	35	36904	5925	0.6071374448947608	0	1.0	930.8241449998604	0.0			0	1.0	1	0	1.0	0	160	0	0	0	unknown
7	1	3	36	29896	5699	0.6072300306987017	0	1.0	1062.3614779997297	0.0			0	1.0	1	0	1.0	0	161	0	0	0	unknown
7	1	3	37	4879	3719	0.6072763247648254	0	1.0	885.226110000076	0.0			0	1.0	1	0	1.0	0	162	0	0	0	unknown
7	1	3	38	30210	5440	0.6073226199951022	0	1.0	833.1503839999641	0.0			0	1.0	1	0	1.0	0	163	0	0	0	unknown
7	1	3	39	50604	9470	0.6073689081240445	0	1.0	1021.2799999999332	0.0			0	1.0	1	0	1.0	0	164	0	0	0	unknown
7	1	3	40	38473	1330	0.6074152073124423	0	1.0	921.3454330001696	0.0			0	1.0	1	0	1.0	0	165	0	0	0	unknown
7	1	3	41	44290	8935	0.6074615011457353	0	1.0	702.2680910004055	0.0			0	1.0	1	0	1.0	0	166	0	0	0	unknown
7	1	3	42	7660	80	0.6075077961431816	0	1.0	951.8843040004867	0.0			0	1.0	1	0	1.0	0	167	1	0	1	new
7	1	3	43	55534	2159	0.6075540859019383	0	1.0	1040.1367989998107	0.0			0	1.0	1	0	1.0	0	168	0	0	0	unknown
7	1	3	44	15691	1866	0.6076003847410902	0	1.0	1036.0515990005297	0.0			0	1.0	1	0	1.0	0	169	0	0	0	unknown
7	1	3	45	44074	5965	0.6076929677510634	0	1.0	2304.1211190002286	0.0			0	1.0	1	0	1.0	0	170	0	0	0	unknown
7	1	3	46	63961	7512	0.6077392656588926	0	1.0	1127.4249580001197	0.0			0	1.0	1	0	1.0	0	171	0	0	0	unknown
7	1	3	47	23294	4025	0.6077855557668954	0	1.0	1085.4493610004283	0.0			0	1.0	1	0	1.0	0	172	0	0	0	unknown
7	1	3	48	23294	4025	0.6078318512300029	1	1.0	651.3893579995056	0.0	0.0		1	1.0	0	1	2.0	0	173	0	0	0	unknown
7	1	3	49	30374	403	0.6078781486721709	0	1.0	1203.72603099986	0.0			0	1.0	1	0	1.0	0	174	1	0	1	new
7	1	3	50	16936	1665	0.6079244443681091	0	1.0	756.0312979994706	0.0			0	1.0	1	0	1.0	0	175	0	0	0	unknown
7	1	3	51	48724	9667	0.6079707379685714	0	1.0	2113.475120999283	0.0			0	1.0	1	0	1.0	0	176	0	0	0	unknown
7	1	3	52	25960	340	0.6080170302884653	0	1.0	965.1701250004407	0.0			0	1.0	1	0	1.0	0	177	1	0	1	new
7	1	3	53	57662	6692	0.6080633172532544	0	1.0	1016.7730180000945	0.0			0	1.0	1	0	1.0	0	178	0	0	0	unknown
7	1	3	54	50969	3824	0.6081559067824855	0	1.0	1003.58550799956	0.0			0	1.0	1	0	1.0	0	179	0	0	0	unknown
7	1	3	55	65510	1160	0.6082022089976817	0	1.0	1125.6838239996796	0.0			0	1.0	1	0	1.0	0	180	0	0	0	unknown
7	1	3	56	71724	7046	0.6082484982907772	1	1.0	815.029083999434	0.0	121.0		1	1.0	0	1	2.0	0	181	0	0	0	unknown
7	1	3	57	538	7852	0.6082947973627597	0	1.0	1002.5367690004712	0.0			0	1.0	1	0	1.0	0	182	0	0	0	unknown
7	1	3	58	72076	5291	0.6083410856081172	0	1.0	2326.2050909997924	0.0			0	1.0	1	0	1.0	0	183	0	0	0	unknown
7	1	3	59	20770	3595	0.6083872858434916	0	1.0	1263.483615000041	0.0			0	1.0	1	0	1.0	0	184	0	0	0	unknown
7	1	3	60	6638	2325	0.6084335823543369	0	1.0	866.2248139999064	0.0			0	1.0	1	0	1.0	0	185	0	0	0	unknown
7	1	3	61	71777	4285	0.6084798703668639	0	1.0	1089.3591069998365	0.0			0	1.0	1	0	1.0	0	186	0	0	0	unknown
7	1	3	62	45280	8561	0.608526162453927	0	1.0	883.4178859997338	0.0			0	1.0	1	0	1.0	0	187	0	0	0	unknown
7	1	3	63	3970	3014	0.608572459896095	1	0.0	955.3209299992886	0.0	95.0		1	0.0	1	0	1.0	0	188	0	0	0	unknown
7	1	4	1	30374	403	0.6102403679396957	1	1.0	2414.7590880002094	0.0	14.0		1	1.0	0	1	2.0	0	189	1	0	2	easy
7	1	4	2	44981	612	0.6102866674773395	1	1.0	975.3467720001937	0.0	153.0		1	1.0	0	1	2.0	0	190	1	0	2	easy
7	1	4	3	25558	4687	0.610332959331572	0	1.0	818.9713560004748	0.0			0	1.0	1	0	1.0	0	191	0	0	0	unknown
7	1	4	4	70197	9425	0.6103792719077318	1	1.0	1408.1937030005065	0.0	170.0		1	1.0	0	1	2.0	0	192	0	0	0	unknown
7	1	4	5	36189	7750	0.6104255515383556	0	1.0	1107.7703999999355	0.0			0	1.0	1	0	1.0	0	193	0	0	0	unknown
7	1	4	6	5628	3194	0.6104718673741444	0	1.0	657.2145890004322	0.0			0	1.0	1	0	1.0	0	194	0	0	0	unknown
7	1	4	7	72070	2628	0.6105181472375988	0	1.0	1202.2314050000205	0.0			0	1.0	1	0	1.0	0	195	0	0	0	unknown
7	1	4	8	44534	9722	0.6105644560884684	0	1.0	1400.853430999632	0.0			0	1.0	1	0	1.0	0	196	0	0	0	unknown
7	1	4	9	45280	8561	0.6106107337400317	1	1.0	837.9300010001317	0.0	9.0		1	1.0	0	1	2.0	0	197	0	0	0	unknown
7	1	4	10	16890	2670	0.6106570250121875	0	1.0	938.396055999874	0.0			0	1.0	1	0	1.0	0	198	0	0	0	unknown
7	1	4	11	45508	5109	0.6107496242038905	0	1.0	1003.4547409995866	0.0			0	1.0	1	0	1.0	0	199	0	0	0	unknown
7	1	4	12	65868	3457	0.6107959159417077	0	1.0	901.6513979995581	0.0			0	1.0	1	0	1.0	0	200	0	0	0	unknown
7	1	4	13	55231	9972	0.6108422058168798	0	0.0	1953.685733000384	0.0			0	0.0	0	1	2.0	0	201	0	0	0	unknown
7	1	4	14	65415	899	0.6108885006979107	0	1.0	881.6884739999294	0.0			0	1.0	1	0	1.0	0	202	1	0	1	new
7	1	4	15	55948	5741	0.6109347933670505	0	1.0	984.0692240004499	0.0			0	1.0	1	0	1.0	0	203	0	0	0	unknown
7	1	4	16	27083	3831	0.6109810855705291	0	1.0	1602.539741000328	0.0			0	1.0	1	0	1.0	0	204	0	0	0	unknown
7	1	4	17	38246	3799	0.611027379753068	0	1.0	967.0727420007098	0.0			0	1.0	1	0	1.0	0	205	0	0	0	unknown
7	1	4	18	53157	2517	0.6110736783593893	0	1.0	935.1143359999696	0.0			0	1.0	1	0	1.0	0	206	0	0	0	unknown
7	1	4	19	58568	6504	0.6111199738224968	0	1.0	1420.486117999644	0.0			0	1.0	1	0	1.0	0	207	0	0	0	unknown
7	1	4	20	11710	3548	0.6112125648651272	0	1.0	1652.887797999938	0.0			0	1.0	1	0	1.0	0	208	0	0	0	unknown
7	1	4	21	59805	6399	0.6112588562536984	0	1.0	1218.8550680002663	0.0			0	1.0	1	0	1.0	0	209	0	0	0	unknown
7	1	4	22	29278	3095	0.6113051470601931	0	1.0	951.3955299998995	0.0			0	1.0	1	0	1.0	0	210	0	0	0	unknown
7	1	4	23	18152	9021	0.6113514470634981	0	1.0	889.0107150000404	0.0			0	1.0	1	0	1.0	0	211	0	0	0	unknown
7	1	4	24	6810	9121	0.6113977329805493	0	1.0	775.7069500003126	0.0			0	1.0	1	0	1.0	0	212	0	0	0	unknown
7	1	4	25	538	7852	0.6114440371748059	1	0.0	1363.0954990003374	0.0	30.0		1	0.0	1	0	1.0	0	213	0	0	0	unknown
7	1	4	26	28108	1108	0.6114903261186555	1	0.0	955.004043000372	0.0	109.0		1	0.0	1	0	1.0	0	214	0	0	0	unknown
7	1	4	27	26082	8441	0.6115366177400574	0	1.0	1939.3685840004764	0.0			0	1.0	1	0	1.0	0	215	0	0	0	unknown
7	1	4	28	1415	9826	0.6115829143673182	0	1.0	1213.9688159995785	0.0			0	1.0	1	0	1.0	0	216	0	0	0	unknown
7	1	4	29	25035	7559	0.6116292085498571	0	1.0	2584.5200139992808	0.0			0	1.0	1	0	1.0	0	217	0	0	0	unknown
7	1	4	30	43436	2880	0.6117217954015359	0	1.0	1061.9241009999312	0.0			0	1.0	1	0	1.0	0	218	0	0	0	unknown
7	1	4	31	42977	9949	0.6117680973839014	0	1.0	1276.8427250002787	0.0			0	1.0	1	0	1.0	0	219	0	0	0	unknown
7	1	4	32	68173	7441	0.6118143828352913	1	0.0	2021.113347999744	0.0	196.0		1	0.0	1	0	1.0	0	220	0	0	0	unknown
7	1	4	33	4637	4751	0.6118606814416125	0	1.0	1359.394744000383	0.0			0	1.0	1	0	1.0	0	221	0	0	0	unknown
7	1	4	34	52674	5679	0.6119069734122604	0	1.0	2355.4783760000646	0.0			0	1.0	1	0	1.0	0	222	0	0	0	unknown
7	1	4	35	28196	9865	0.6119532734155654	1	1.0	853.0847950005409	0.0	133.0		1	1.0	0	1	2.0	0	223	0	0	0	unknown
7	1	4	36	15646	1645	0.6119995638728141	0	1.0	735.6205100004445	0.0			0	1.0	1	0	1.0	0	224	0	0	0	unknown
7	1	4	37	56198	1266	0.6120458537479861	1	0.0	1703.5756079994824	0.0	92.0		1	0.0	1	0	1.0	0	225	0	0	0	unknown
7	1	4	38	28172	1549	0.6120921516558155	0	1.0	1181.935808000162	0.0			0	1.0	1	0	1.0	0	226	0	0	0	unknown
7	1	4	39	31051	4229	0.6121384412981569	1	1.0	1178.9511460001447	0.0	98.0		1	1.0	0	1	2.0	0	227	0	0	0	unknown
7	1	4	40	10983	9562	0.6121846443274989	0	1.0	1168.361496000216	0.0			0	1.0	1	0	1.0	0	228	0	0	0	unknown
7	1	4	41	26509	6187	0.6122772246599197	0	1.0	1184.7198519999436	0.0			0	1.0	1	0	1.0	0	229	0	0	0	unknown
7	1	4	42	35151	8748	0.6123235204722732	1	0.0	2048.1251849996625	0.0	187.0		1	0.0	1	0	1.0	0	230	0	0	0	unknown
7	1	4	43	29826	8374	0.6123698159353806	0	1.0	1051.268782999614	0.0			0	1.0	1	0	1.0	0	231	0	0	0	unknown
7	1	4	44	42172	559	0.6124161147745326	0	1.0	971.619957999792	0.0			0	1.0	1	0	1.0	0	232	1	0	1	new
7	1	4	45	5603	53	0.6124624016229063	0	1.0	1017.0107779995304	0.0			0	1.0	1	0	1.0	0	233	1	0	1	new
7	1	4	46	43988	8043	0.6125087001128122	0	1.0	1086.2607689996366	0.0			0	1.0	1	0	1.0	0	234	0	0	0	unknown
7	1	4	47	57167	8972	0.6125549990683794	0	1.0	1056.618115000674	0.0			0	1.0	1	0	1.0	0	235	0	0	0	unknown
7	1	4	48	25686	5860	0.6126012859167531	0	1.0	861.9062060006398	0.0			0	1.0	1	0	1.0	0	236	0	0	0	unknown
7	1	4	49	5953	3756	0.6126475832425057	0	1.0	891.5829090001351	0.0			0	1.0	1	0	1.0	0	237	0	0	0	unknown
7	1	4	50	67323	4734	0.6126938773086295	0	1.0	1477.2611620001044	0.0			0	1.0	1	0	1.0	0	238	0	0	0	unknown
7	1	4	51	62568	8985	0.6127401695121079	0	1.0	770.6435560003229	0.0			0	1.0	1	0	1.0	0	239	0	0	0	unknown
7	1	4	52	10593	5862	0.6127864710288122	0	1.0	1041.9597070003874	0.0			0	1.0	1	0	1.0	0	240	0	0	0	unknown
7	1	4	53	28505	1681	0.6128790563670918	0	1.0	1078.8168549997863	0.0			0	1.0	1	0	1.0	0	241	0	0	0	unknown
7	1	4	54	3975	8054	0.6129253508988767	1	1.0	1523.5270240000318	0.0	100.0		1	1.0	0	1	2.0	0	242	0	0	0	unknown
7	1	4	55	29654	1983	0.6129716404248028	0	1.0	904.3571329993938	0.0			0	1.0	1	0	1.0	0	243	0	0	0	unknown
7	1	4	56	46022	7973	0.6130179383326321	0	1.0	1101.9935040003475	0.0			0	1.0	1	0	1.0	0	244	0	0	0	unknown
7	1	4	57	6250	2469	0.6130642280913889	0	1.0	767.1940899999754	0.0			0	1.0	1	0	1.0	0	245	0	0	0	unknown
7	1	4	58	21602	265	0.6131105254171416	0	1.0	802.0953330005796	0.0			0	1.0	1	0	1.0	0	246	1	0	1	new
7	1	4	59	62303	860	0.6131568240234628	0	1.0	1703.2159639993552	0.0			0	1.0	1	0	1.0	0	247	1	0	1	new
7	1	4	60	9140	3951	0.6132031097076833	0	1.0	1822.887255999376	0.0			0	1.0	1	0	1.0	0	248	0	0	0	unknown
7	1	4	61	68733	3444	0.6132494092453271	1	0.0	1968.6028360001728	0.0	167.0		1	0.0	1	0	1.0	0	249	0	0	0	unknown
7	1	4	62	5302	45	0.6132956966757774	0	1.0	842.1617899994089	0.0			0	1.0	1	0	1.0	0	250	1	0	1	new
7	1	5	1	15493	187	0.6159177274676039	0	1.0	1222.2907630002735	0.0			0	1.0	1	0	1.0	0	251	1	0	1	new
7	1	5	2	36350	6960	0.6159640211844816	0	1.0	859.6732910000355	0.0			0	1.0	1	0	1.0	0	252	0	0	0	unknown
7	1	5	3	46958	9857	0.6160103112924844	0	1.0	1038.6557100000573	0.0			0	1.0	1	0	1.0	0	253	0	0	0	unknown
7	1	5	4	9235	9133	0.6160566071048378	0	1.0	1222.887236999668	0.0			0	1.0	1	0	1.0	0	254	0	0	0	unknown
7	1	5	5	30455	8620	0.6161028965143486	0	1.0	757.0292909995261	0.0			0	1.0	1	0	1.0	0	255	0	0	0	unknown
7	1	5	6	25288	323	0.6161491889506578	0	1.0	1002.4331710001206	0.0			0	1.0	1	0	1.0	0	256	1	0	1	new
7	1	5	7	53162	7974	0.6161954931449145	0	1.0	820.8240280000609	0.0			0	1.0	1	0	1.0	0	257	0	0	0	unknown
7	1	5	8	65241	3060	0.6162417876766993	0	1.0	971.8773969998435	0.0			0	1.0	1	0	1.0	0	258	0	0	0	unknown
7	1	5	9	70275	3271	0.6162880806950852	0	1.0	1041.345294000166	0.0			0	1.0	1	0	1.0	0	259	0	0	0	unknown
7	1	5	10	64397	5081	0.616334369406104	0	1.0	1411.1514280002666	0.0			0	1.0	1	0	1.0	0	260	0	0	0	unknown
7	1	5	11	61916	4741	0.6164269531145691	0	1.0	1177.1747479997427	0.0			0	1.0	1	0	1.0	0	261	0	0	0	unknown
7	1	5	12	26999	1085	0.6164732504403218	0	1.0	757.4834079996435	0.0			0	1.0	1	0	1.0	0	262	0	0	0	unknown
7	1	5	13	19944	6570	0.6165196292567998	0	1.0	1054.043931999331	0.0			0	1.0	1	0	1.0	0	263	0	0	0	unknown
7	1	5	14	67323	4734	0.6165658491663634	1	1.0	1613.112869999895	0.0	25.0		1	1.0	0	1	2.0	0	264	0	0	0	unknown
7	1	5	15	21602	265	0.6166122258873656	1	1.0	1041.7585340001096	0.0	18.0		1	1.0	0	1	2.0	0	265	1	0	2	easy
7	1	5	16	63893	2980	0.6166584297316148	1	1.0	743.3837159996982	0.0	116.0	119.0	1	1.0	0	1	2.0	0	266	0	0	0	unknown
7	1	5	17	61589	6150	0.6167048214701935	0	1.0	712.9616889997124	0.0			0	1.0	1	0	1.0	0	267	0	0	0	unknown
7	1	5	18	6559	66	0.6167510219383984	0	1.0	621.9618960003572	0.0			0	1.0	1	0	1.0	0	268	1	0	1	new
7	1	5	19	8662	5550	0.6167974151903763	0	1.0	1953.0737120003323	0.0			0	1.0	1	0	1.0	0	269	0	0	0	unknown
7	1	5	20	30933	6106	0.6168436055304481	0	1.0	1741.7232750003675	0.0			0	1.0	1	0	1.0	0	270	0	0	0	unknown
7	1	5	21	46022	7973	0.616890010656789	1	1.0	1166.908742000487	0.0	26.0		1	1.0	0	1	2.0	0	271	0	0	0	unknown
7	1	5	22	59375	4401	0.6169362034415826	0	1.0	1355.6557899992183	0.0			0	1.0	1	0	1.0	0	272	0	0	0	unknown
7	1	5	23	9032	2727	0.6170287870336323	0	1.0	1957.7253009993	0.0			0	1.0	1	0	1.0	0	273	0	0	0	unknown
7	1	5	24	64047	6036	0.6170750734163448	0	1.0	1456.9928870005242	0.0			0	1.0	1	0	1.0	0	274	0	0	0	unknown
7	1	5	25	35040	7741	0.6171213755151256	0	1.0	1162.6863299998147	0.0			0	1.0	1	0	1.0	0	275	0	0	0	unknown
7	1	5	26	72880	2387	0.6171675836667418	0	1.0	1254.637291999643	0.0			0	1.0	1	0	1.0	0	276	0	0	0	unknown
7	1	5	27	56210	7130	0.6172138663241639	0	1.0	857.9818270000032	0.0			0	1.0	1	0	1.0	0	277	0	0	0	unknown
7	1	5	28	52634	6647	0.617260166327469	0	1.0	1044.5145769999726	0.0			0	1.0	1	0	1.0	0	278	0	0	0	unknown
7	1	5	29	36904	5925	0.6173064475879073	1	1.0	2554.1752139997698	0.0	118.0		1	1.0	0	1	2.0	0	279	0	0	0	unknown
7	1	5	30	17311	3686	0.6173527517821639	0	1.0	802.7707979999831	0.0			0	1.0	1	0	1.0	0	280	0	0	0	unknown
7	1	5	31	70336	970	0.6173990437528118	1	1.0	1337.6064900003255	0.0	153.0		1	1.0	0	1	2.0	0	281	1	0	2	easy
7	1	5	32	16724	201	0.6174453594721853	0	1.0	800.8778620005614	0.0			0	1.0	1	0	1.0	0	282	1	0	1	new
7	1	5	33	25558	4687	0.6174916261807084	1	1.0	2331.387705999987	0.0	91.0		1	1.0	0	1	2.0	0	283	0	0	0	unknown
7	1	5	34	72880	2387	0.617584214429371	1	1.0	1038.3093559994447	0.0	7.0		1	1.0	0	1	2.0	0	284	0	0	0	unknown
7	1	5	35	9624	6349	0.6176305263070389	0	1.0	1425.1022640000883	0.0			0	1.0	1	0	1.0	0	285	0	0	0	unknown
7	1	5	36	65868	3457	0.6176768086152151	1	1.0	941.3938610005059	0.0	85.0		1	1.0	0	1	2.0	0	286	0	0	0	unknown
7	1	5	37	12913	5237	0.6177231050096452	0	1.0	1453.105528999913	0.0			0	1.0	1	0	1.0	0	287	0	0	0	unknown
7	1	5	38	12913	5237	0.6177693955833092	1	1.0	721.2439599998106	0.0	0.0		1	1.0	0	1	2.0	0	288	0	0	0	unknown
7	1	5	39	71887	5169	0.6178156852256506	1	1.0	777.5511950003419	0.0	180.0	222.0	1	1.0	0	1	2.0	0	289	0	0	0	unknown
7	1	5	40	29522	2284	0.6178619847632943	0	1.0	1058.3843459999116	0.0			0	1.0	1	0	1.0	0	290	0	0	0	unknown
7	1	5	41	54353	4210	0.6179082812741398	0	1.0	809.9300399999265	0.0			0	1.0	1	0	1.0	0	291	0	0	0	unknown
7	1	5	42	66112	3597	0.6179545724298804	0	1.0	954.6484729999064	0.0			0	1.0	1	0	1.0	0	292	0	0	0	unknown
7	1	5	43	41392	2768	0.6180471631232649	0	1.0	1158.1603020003968	0.0			0	1.0	1	0	1.0	0	293	0	0	0	unknown
7	1	5	44	71380	5714	0.6180934582371264	0	1.0	802.7386180001484	0.0			0	1.0	1	0	1.0	0	294	0	0	0	unknown
7	1	5	45	538	7852	0.6181397503241896	1	1.0	3100.1288739998927	1.0	81.0	112.0	1	1.0	1	1	2.0	0	295	0	0	0	unknown
7	1	5	46	42844	9788	0.6181860448559746	0	1.0	1034.6330290003607	0.0			0	1.0	1	0	1.0	0	296	0	0	0	unknown
7	1	5	47	65287	9094	0.6182323282118886	0	1.0	1402.9113400001731	0.0			0	1.0	1	0	1.0	0	297	0	0	0	unknown
7	1	5	48	2090	2607	0.6182786265853792	0	1.0	947.3493710002003	0.0			0	1.0	1	0	1.0	0	298	0	0	0	unknown
7	1	5	49	18282	9272	0.6183249267050996	0	1.0	1644.7531229996457	1.0			0	1.0	1	1	1.0	0	299	0	0	0	unknown
7	1	5	50	4748	5192	0.6183712152997031	0	1.0	1216.176505000476	0.0			0	1.0	1	0	1.0	0	300	0	0	0	unknown
7	1	5	51	8768	7185	0.6184175058733671	0	1.0	696.3421489999746	0.0			0	1.0	1	0	1.0	0	301	0	0	0	unknown
7	1	5	52	29146	6581	0.6184637121623381	0	1.0	978.0579580001358	0.0			0	1.0	1	0	1.0	0	302	0	0	0	unknown
7	1	5	53	43292	1492	0.6185100062284618	0	1.0	1037.6823569995395	0.0			0	1.0	1	0	1.0	0	303	0	0	0	unknown
7	1	5	54	41607	2196	0.6185563007602468	0	1.0	710.2033640003356	0.0			0	1.0	1	0	1.0	0	304	0	0	0	unknown
7	1	5	55	42510	7998	0.6186488919192925	0	1.0	1034.2983989994536	0.0			0	1.0	1	0	1.0	0	305	0	0	0	unknown
7	1	5	56	40576	531	0.6186951766721904	0	1.0	1429.3703249995815	0.0			0	1.0	1	0	1.0	0	306	1	0	1	new
7	1	5	57	9313	6520	0.6187414772575721	0	1.0	786.7403689997445	0.0			0	1.0	1	0	1.0	0	307	0	0	0	unknown
7	1	5	58	15068	3898	0.6187877665506675	0	1.0	1847.496892999516	0.0			0	1.0	1	0	1.0	0	308	0	0	0	unknown
7	1	5	59	43591	9743	0.6188340657390654	0	1.0	1328.7312960001143	0.0			0	1.0	1	0	1.0	0	309	0	0	0	unknown
7	1	5	60	41287	2430	0.6188803594559431	0	1.0	978.9375029995425	0.0			0	1.0	1	0	1.0	0	310	0	0	0	unknown
7	1	5	61	9747	3694	0.6189266537548974	1	1.0	1902.508803999808	0.0	214.0		1	1.0	0	1	2.0	0	311	0	0	0	unknown
7	1	5	62	11710	3548	0.6189729473553597	1	1.0	1272.4613059999683	0.0	103.0		1	1.0	0	1	2.0	0	312	0	0	0	unknown
7	1	5	63	40672	1939	0.6190192362992092	0	1.0	987.7351349996387	0.0			0	1.0	1	0	1.0	0	313	0	0	0	unknown
7	1	6	1	38829	1129	0.6205224522855132	0	1.0	1011.9998119998854	0.0			0	1.0	1	0	1.0	0	314	0	0	0	unknown
7	1	6	2	35236	3996	0.6205687390174716	0	1.0	1133.6751660001028	0.0			0	1.0	1	0	1.0	0	315	0	0	0	unknown
7	1	6	3	12437	5160	0.6206150393700227	0	1.0	901.6970459997536	0.0			0	1.0	1	0	1.0	0	316	0	0	0	unknown
7	1	6	4	34393	2539	0.6206613446120172	0	1.0	1046.6762280002513	0.0			0	1.0	1	0	1.0	0	317	0	0	0	unknown
7	1	6	5	56595	5155	0.6207076215650886	0	1.0	933.4021069998925	0.0			0	1.0	1	0	1.0	0	318	0	0	0	unknown
7	1	6	6	58895	3647	0.6207539256429299	0	1.0	1203.6531300000206	0.0			0	1.0	1	0	1.0	0	319	0	0	0	unknown
7	1	6	7	45403	7233	0.6208002093480899	0	1.0	1709.8472380002931	0.0			0	1.0	1	0	1.0	0	320	0	0	0	unknown
7	1	6	8	60490	5772	0.6208465216914191	1	0.0	1702.5465159995292	0.0	234.0		1	0.0	1	0	1.0	0	321	0	0	0	unknown
7	1	6	9	36909	5761	0.6208928062114863	0	1.0	886.4144270000905	0.0			0	1.0	1	0	1.0	0	322	0	0	0	unknown
7	1	6	10	67643	9964	0.6209391066804528	0	1.0	715.1769240008433	0.0			0	1.0	1	0	1.0	0	323	0	0	0	unknown
7	1	6	11	22463	3903	0.6209853905020281	0	1.0	1027.8733109998939	0.0			0	1.0	1	0	1.0	0	324	0	0	0	unknown
7	1	6	12	1661	9657	0.6210316995857283	0	1.0	767.4532499995621	0.0			0	1.0	1	0	1.0	0	325	0	0	0	unknown
7	1	6	13	45006	1808	0.6211242787539958	0	1.0	954.8919999997453	0.0			0	1.0	1	0	1.0	0	326	0	0	0	unknown
7	1	6	14	50705	3036	0.6211705738678573	0	1.0	789.5474289998674	0.0			0	1.0	1	0	1.0	0	327	0	0	0	unknown
7	1	6	15	13143	9484	0.6212168671190738	0	0.0	2641.761521999797	0.0			0	0.0	0	1	2.0	0	328	0	0	0	unknown
7	1	6	16	23294	4025	0.6212631575763224	1	0.0	2456.3205920003384	0.0	155.0	156.0	1	0.0	1	0	1.0	0	329	0	0	0	unknown
7	1	6	17	17317	6068	0.6213094583945348	0	1.0	1983.7057159993487	0.0			0	1.0	1	0	1.0	0	330	0	0	0	unknown
7	1	6	18	421	5418	0.6213557461742311	0	1.0	852.5036959999853	0.0			0	1.0	1	0	1.0	0	331	0	0	0	unknown
7	1	6	19	1293	4005	0.6214020471088588	0	1.0	930.0368359999992	0.0			0	1.0	1	0	1.0	0	332	0	0	0	unknown
7	1	6	20	28858	9960	0.6214483301155269	0	1.0	753.5728650000236	0.0			0	1.0	1	0	1.0	0	333	0	0	0	unknown
7	1	6	21	46540	6726	0.6214946303516626	1	0.0	1088.4612219997507	0.0	193.0		1	0.0	1	0	1.0	0	334	0	0	0	unknown
7	1	6	22	2843	2504	0.6215409153373911	0	1.0	1533.4093580004264	0.0			0	1.0	1	0	1.0	0	335	0	0	0	unknown
7	1	6	23	30045	2735	0.6216335074277594	0	1.0	1324.5924789998753	0.0			0	1.0	1	0	1.0	0	336	0	0	0	unknown
7	1	6	24	50841	8174	0.6216798170935361	0	1.0	933.2933349996893	0.0			0	1.0	1	0	1.0	0	337	0	0	0	unknown
7	1	6	25	45921	7260	0.6217260926496238	0	1.0	837.9326489994127	0.0			0	1.0	1	0	1.0	0	338	0	0	0	unknown
7	1	6	26	58753	5558	0.6217723975423723	0	1.0	944.4569940005747	0.0			0	1.0	1	0	1.0	0	339	0	0	0	unknown
7	1	6	27	57466	7780	0.6218186873011291	0	1.0	756.1693030002061	0.0			0	1.0	1	0	1.0	0	340	0	0	0	unknown
7	1	6	28	61115	1014	0.6218649921938776	0	1.0	867.3211710001851	0.0			0	1.0	1	0	1.0	0	341	0	0	0	unknown
7	1	6	29	62139	3638	0.6219112790422514	0	1.0	934.5452229999864	0.0			0	1.0	1	0	1.0	0	342	0	0	0	unknown
7	1	6	30	65492	6843	0.6219575712457299	1	0.0	2135.252703999868	0.0	240.0		1	0.0	1	0	1.0	0	343	0	0	0	unknown
7	1	6	31	38249	9313	0.6220038599567487	0	1.0	1503.7988740004948	0.0			0	1.0	1	0	1.0	0	344	0	0	0	unknown
7	1	6	32	45105	1702	0.6220501540228724	0	1.0	1092.148755999915	0.0			0	1.0	1	0	1.0	0	345	0	0	0	unknown
7	1	6	33	45596	616	0.6220964555395767	0	1.0	702.7931320008065	0.0			0	1.0	1	0	1.0	0	346	1	1	1	new
7	1	6	34	69151	3640	0.6221427506534382	0	1.0	1906.8881700004567	0.0			0	1.0	1	0	1.0	0	347	0	0	0	unknown
7	1	6	35	66963	8318	0.6222352414624766	0	1.0	975.1030830002493	0.0			0	1.0	1	0	1.0	0	348	0	0	0	unknown
7	1	6	36	62302	9017	0.622281527146697	0	1.0	1328.0933289997847	0.0			0	1.0	1	0	1.0	0	349	0	0	0	unknown
7	1	6	37	27636	9347	0.6223278203979133	0	1.0	1402.9949579999084	0.0			0	1.0	1	0	1.0	0	350	0	0	0	unknown
7	1	6	38	21780	5238	0.6223741197027266	0	1.0	859.7242350006127	0.0			0	1.0	1	0	1.0	0	351	0	0	0	unknown
7	1	6	39	51580	6246	0.622420409694314	0	1.0	1424.1844820007827	0.0			0	1.0	1	0	1.0	0	352	0	0	0	unknown
7	1	6	40	5628	3194	0.6224667095812036	1	1.0	2847.337911000068	1.0	158.0		1	1.0	1	1	2.0	0	353	0	0	0	unknown
7	1	6	41	53053	727	0.6225129946833476	1	1.0	1279.5033020001936	1.0	297.0		1	1.0	1	1	2.0	0	354	1	1	2	easy
7	1	6	42	25713	6311	0.6225592981791123	0	1.0	911.2695590001747	0.0			0	1.0	1	0	1.0	0	355	0	0	0	unknown
7	1	6	43	44290	8935	0.622605585027486	1	1.0	808.9503150004019	0.0	189.0		1	1.0	0	1	2.0	0	356	0	0	0	unknown
7	1	6	44	9918	116	0.6226981796789914	0	1.0	1065.253799999482	0.0			0	1.0	1	0	1.0	0	357	1	0	1	new
7	1	6	45	24462	2297	0.6227444749092683	0	0.0	1739.4886840002073	0.0			0	0.0	0	1	2.0	0	358	0	0	0	unknown
7	1	6	46	65135	3293	0.6227907689753919	0	1.0	1047.250857999643	0.0			0	1.0	1	0	1.0	0	359	0	0	0	unknown
7	1	6	47	26599	351	0.6228370557073503	0	1.0	2565.028418000111	0.0			0	1.0	1	0	1.0	0	360	1	0	1	new
7	1	6	48	3209	2336	0.6228833484929054	0	0.0	2470.575839000048	0.0			0	0.0	0	1	2.0	0	361	0	0	0	unknown
7	1	6	49	21602	265	0.6229296503588557	1	1.0	713.6877470002219	0.0	96.0	115.0	1	1.0	0	1	2.0	0	362	1	0	3	easy
7	1	6	50	42977	9949	0.622975937789306	1	0.0	807.9801829999269	0.0	143.0		1	0.0	1	0	1.0	0	363	0	0	0	unknown
7	1	6	51	421	5418	0.6230222354643046	1	1.0	788.7997809993976	0.0	32.0		1	1.0	0	1	2.0	0	364	0	0	0	unknown
7	1	6	52	24736	6017	0.6230685269692912	0	1.0	892.7767349996428	0.0			0	1.0	1	0	1.0	0	365	0	0	0	unknown
7	1	6	53	27346	8280	0.6231611166149377	0	1.0	817.9780730006314	0.0			0	1.0	1	0	1.0	0	366	0	0	0	unknown
7	1	6	54	35207	9965	0.6232074152212589	0	1.0	743.3607829998435	0.0			0	1.0	1	0	1.0	0	367	0	0	0	unknown
7	1	6	55	14231	8516	0.6232537024188786	0	1.0	1026.3617990003695	0.0			0	1.0	1	0	1.0	0	368	0	0	0	unknown
7	1	6	56	3975	8054	0.6233000047504901	1	1.0	664.3240670000523	0.0	126.0	227.0	1	1.0	0	1	2.0	0	369	0	0	0	unknown
7	1	6	57	56198	1266	0.6233462982345372	1	1.0	903.6628650001148	0.0	144.0	237.0	1	1.0	0	1	2.0	0	370	0	0	0	unknown
7	1	6	58	3940	8093	0.6233925928827375	0	1.0	867.5713809998342	0.0			0	1.0	1	0	1.0	0	371	0	0	0	unknown
7	1	6	59	53181	8498	0.6234387862496078	0	1.0	829.6875960004398	0.0			0	1.0	1	0	1.0	0	372	0	0	0	unknown
7	1	6	60	6250	2469	0.6234850832261145	1	1.0	919.5661439998729	0.0	127.0		1	1.0	0	1	2.0	0	373	0	0	0	unknown
7	1	6	61	60306	830	0.6235313741490244	0	1.0	1105.931887999759	0.0			0	1.0	1	0	1.0	0	374	1	0	1	new
7	1	6	62	65750	6274	0.6235776743851602	1	0.0	1232.6717799996911	0.0	224.0		1	0.0	1	0	1.0	0	375	0	0	0	unknown
7	1	7	1	50841	8174	0.6250755597138777	1	1.0	953.8313849998304	0.0	38.0		1	1.0	0	1	2.0	0	376	0	0	0	unknown
7	1	7	2	48239	4615	0.625121868448332	0	1.0	801.8066410004394	0.0			0	1.0	1	0	1.0	0	377	0	0	0	unknown
7	1	7	3	17453	2736	0.6251681551802903	0	1.0	816.4765110004738	0.0			0	1.0	1	0	1.0	0	378	0	0	0	unknown
7	1	7	4	183	5200	0.6252144642639905	1	1.0	1230.9191029999056	0.0	291.0		1	1.0	0	1	2.0	0	379	0	0	0	unknown
7	1	7	5	33268	2330	0.6252607385395094	0	1.0	777.3132060001443	0.0			0	1.0	1	0	1.0	0	380	0	0	0	unknown
7	1	7	6	47538	4470	0.6253070472739636	0	1.0	1008.2705680006256	0.0			0	1.0	1	0	1.0	0	381	0	0	0	unknown
7	1	7	7	4634	4068	0.6253533335402607	1	0.0	834.0479970001979	0.0	304.0		1	0.0	1	0	1.0	0	382	0	0	0	unknown
7	1	7	8	45480	5858	0.6253996320301666	0	1.0	1135.3517259994987	0.0			0	1.0	1	0	1.0	0	383	0	0	0	unknown
7	1	7	9	64910	1538	0.625445922021754	1	0.0	1908.8643380000576	0.0	300.0		1	0.0	1	0	1.0	0	384	0	0	0	unknown
7	1	7	10	67325	6560	0.625538506777957	0	0.0	1790.8192970007804	0.0			0	0.0	0	1	2.0	0	385	0	0	0	unknown
7	1	7	11	7268	8283	0.6255848155124112	0	1.0	913.0986780000968	0.0			0	1.0	1	0	1.0	0	386	0	0	0	unknown
7	1	7	12	12437	5160	0.6256310942117124	1	1.0	1003.8950200005274	0.0	70.0		1	1.0	0	1	2.0	0	387	0	0	0	unknown
7	1	7	13	65135	3293	0.6256773993372917	1	1.0	1214.637113000208	0.0	28.0		1	1.0	0	1	2.0	0	388	0	0	0	unknown
7	1	7	14	44074	5965	0.625723686418496	1	1.0	1062.963115000457	0.0	218.0		1	1.0	0	1	2.0	0	389	0	0	0	unknown
7	1	7	15	16428	2408	0.6257699800189584	0	1.0	764.7559420001926	0.0			0	1.0	1	0	1.0	0	390	0	0	0	unknown
7	1	7	16	48724	9667	0.6258162748999893	1	1.0	759.801565000089	0.0	214.0		1	1.0	0	1	2.0	0	391	0	0	0	unknown
7	1	7	17	15691	1866	0.6258625773480162	1	0.0	1100.7094719998347	0.0	222.0		1	0.0	1	0	1.0	0	392	0	0	0	unknown
7	1	7	18	58648	3342	0.6259087583748623	0	1.0	1208.130298000469	0.0			0	1.0	1	0	1.0	0	393	0	0	0	unknown
7	1	7	19	61115	1014	0.6259550597751513	1	1.0	788.1618650008022	0.0	52.0		1	1.0	0	1	2.0	0	394	0	0	0	unknown
7	1	7	20	21863	7951	0.6260476436000317	0	1.0	887.5178110001798	0.0			0	1.0	1	0	1.0	0	395	0	0	0	unknown
7	1	7	21	48130	4784	0.6260939347557724	0	1.0	865.6028690002131	0.0			0	1.0	1	0	1.0	0	396	0	0	0	unknown
7	1	7	22	64349	5660	0.6261402367381379	0	1.0	909.0650199996162	0.0			0	1.0	1	0	1.0	0	397	0	0	0	unknown
7	1	7	23	29803	8315	0.6261865228880196	0	1.0	877.219566000349	0.0			0	1.0	1	0	1.0	0	398	0	0	0	unknown
7	1	7	24	45018	1098	0.6262328254524618	0	1.0	1078.4743189997243	0.0			0	1.0	1	0	1.0	0	399	0	0	0	unknown
7	1	7	25	19781	1431	0.6262791152112185	0	1.0	1870.5486720000408	0.0			0	1.0	1	0	1.0	0	400	0	0	0	unknown
7	1	7	26	45480	5858	0.6263254100922495	1	1.0	945.190649000324	0.0	17.0		1	1.0	0	1	2.0	0	401	0	0	0	unknown
7	1	7	27	29040	2848	0.6263717024121433	0	1.0	838.6302199996862	0.0			0	1.0	1	0	1.0	0	402	0	0	0	unknown
7	1	7	28	4787	36	0.6264179970603436	0	1.0	1302.2844200004329	0.0			0	1.0	1	0	1.0	0	403	1	0	1	new
7	1	7	29	44135	6866	0.6264642872847616	0	1.0	850.2297359991645	0.0			0	1.0	1	0	1.0	0	404	0	0	0	unknown
7	1	7	30	45018	1098	0.6265105826314538	1	1.0	789.2364560002534	0.0	5.0		1	1.0	0	1	2.0	0	405	0	0	0	unknown
7	1	7	31	29803	8315	0.6265568835660815	1	1.0	825.6426190000639	0.0	7.0		1	1.0	0	1	2.0	0	406	0	0	0	unknown
7	1	7	32	49317	5663	0.6266031719278544	0	1.0	1419.4720650002637	0.0			0	1.0	1	0	1.0	0	407	0	0	0	unknown
7	1	7	33	68148	2218	0.626649462734349	0	1.0	823.6854460001267	0.0			0	1.0	1	0	1.0	0	408	0	0	0	unknown
7	1	7	34	45480	5858	0.6267420630902051	1	1.0	702.417107000656	0.0	7.0	25.0	1	1.0	0	1	2.0	0	409	0	0	0	unknown
7	1	7	35	18282	9272	0.6267883540131151	1	0.0	879.4363820006765	0.0	110.0		1	0.0	1	0	1.0	0	410	0	0	0	unknown
7	1	7	36	9428	8216	0.6268346438882872	0	1.0	1504.463819000193	0.0			0	1.0	1	0	1.0	0	411	0	0	0	unknown
7	1	7	37	41012	7520	0.6268809402827173	0	1.0	933.4178539993443	0.0			0	1.0	1	0	1.0	0	412	0	0	0	unknown
7	1	7	38	13955	5919	0.626927234348841	0	1.0	1238.318480000089	0.0			0	1.0	1	0	1.0	0	413	0	0	0	unknown
7	1	7	39	38655	2451	0.6269735299283637	0	1.0	782.0285030002195	0.0			0	1.0	1	0	1.0	0	414	0	0	0	unknown
7	1	7	40	49372	9575	0.6270198250422254	0	1.0	1102.37270899961	0.0			0	1.0	1	0	1.0	0	415	0	0	0	unknown
7	1	7	41	33268	2330	0.6270661213202401	1	1.0	1122.7276019999408	0.0	35.0		1	1.0	0	1	2.0	0	416	0	0	0	unknown
7	1	7	42	57516	7310	0.6271124056074768	0	1.0	802.6737510008387	0.0			0	1.0	1	0	1.0	0	417	0	0	0	unknown
7	1	7	43	62905	8175	0.6271587114315479	0	1.0	674.1236160005428	0.0			0	1.0	1	0	1.0	0	418	0	0	0	unknown
7	1	7	44	26081	2259	0.627204994787462	1	1.0	2516.9072569997297	1.0	274.0		1	1.0	1	1	2.0	0	419	0	0	0	unknown
7	1	7	45	59375	4401	0.6272511916467919	1	0.0	1491.223901000012	0.0	147.0		1	0.0	1	0	1.0	0	420	0	0	0	unknown
7	1	7	46	44722	3902	0.6273437804775313	1	0.0	1624.643427000592	0.0	396.0		1	0.0	1	0	1.0	0	421	0	0	0	unknown
7	1	7	47	16055	9335	0.6273900737287476	0	1.0	1533.20291	0.0			0	1.0	1	0	1.0	0	422	0	0	0	unknown
7	1	7	48	757	2760	0.6274363688426092	0	1.0	863.6902950001968	0.0			0	1.0	1	0	1.0	0	423	0	0	0	unknown
7	1	7	49	24736	6017	0.627482671290636	1	1.0	1247.470999000143	0.0	58.0		1	1.0	0	1	2.0	0	424	0	0	0	unknown
7	1	7	50	27348	8170	0.627528965473175	0	1.0	745.7740549998562	0.0			0	1.0	1	0	1.0	0	425	0	0	0	unknown
7	1	7	51	10432	5262	0.6275752515066415	0	1.0	2102.492942999561	0.0			0	1.0	1	0	1.0	0	426	0	0	0	unknown
7	1	7	52	10432	5262	0.627621550578624	1	1.0	658.5295400000177	0.0	0.0		1	1.0	0	1	2.0	0	427	0	0	0	unknown
7	1	7	53	3209	2336	0.6276678446447476	1	1.0	1422.7962909999403	0.0	66.0		1	1.0	0	1	2.0	0	428	0	0	0	unknown
7	1	7	54	69842	3862	0.6277141340542584	0	1.0	1570.8745910005744	0.0			0	1.0	1	0	1.0	0	429	0	0	0	unknown
7	1	7	55	26334	8482	0.6278067218372598	0	1.0	686.223037999298	0.0			0	1.0	1	0	1.0	0	430	0	0	0	unknown
7	1	7	56	41646	9525	0.6278530164854601	0	1.0	727.9338030002691	0.0			0	1.0	1	0	1.0	0	431	0	0	0	unknown
7	1	7	57	34790	3450	0.6278993161395192	0	1.0	1410.7663390004743	0.0			0	1.0	1	0	1.0	0	432	0	0	0	unknown
7	1	7	58	57662	6692	0.6279456069460138	1	0.0	1628.260000999944	0.0	254.0		1	0.0	1	0	1.0	0	433	0	0	0	unknown
7	1	7	59	19182	230	0.6279919034568592	0	1.0	912.7796459997624	0.0			0	1.0	1	0	1.0	0	434	1	0	1	new
7	1	7	60	34727	5967	0.628038199734874	0	1.0	974.1444659994158	0.0			0	1.0	1	0	1.0	0	435	0	0	0	unknown
7	1	7	61	21922	7856	0.6280844921711832	0	1.0	733.3506000004489	0.0			0	1.0	1	0	1.0	0	436	0	0	0	unknown
7	1	7	62	39248	8586	0.6281307887984439	0	1.0	637.28384299975	0.0			0	1.0	1	0	1.0	0	437	0	0	0	unknown
7	1	7	63	56210	7130	0.628177081583999	1	1.0	1381.223227999726	0.0	160.0		1	1.0	0	2	2.0	0	438	0	0	0	unknown
7	1	8	1	58333	8109	0.6297010156558825	0	1.0	2017.2259559994927	0.0			0	1.0	1	0	1.0	0	439	0	0	0	unknown
7	1	8	2	6559	66	0.6297472089063376	1	1.0	1463.4155559997453	0.0	171.0		1	1.0	0	1	2.0	0	440	1	0	2	easy
7	1	8	3	72081	992	0.6297935078619047	0	1.0	1310.9270470004049	0.0			0	1.0	1	0	1.0	0	441	1	0	1	new
7	1	8	4	65278	2986	0.6298397991340607	0	1.0	710.5750860000626	0.0			0	1.0	1	0	1.0	0	442	0	0	0	unknown
7	1	8	5	30104	1192	0.6298860979732125	0	1.0	757.7298469996094	0.0			0	1.0	1	0	1.0	0	443	0	0	0	unknown
7	1	8	6	19433	5568	0.6299323858693242	0	1.0	1040.2471020006487	0.0			0	1.0	1	0	1.0	0	444	0	0	0	unknown
7	1	8	7	5462	2203	0.6299786872696131	0	1.0	1068.2522130000507	0.0			0	1.0	1	0	1.0	0	445	0	0	0	unknown
7	1	8	8	8768	7185	0.6300249776104465	1	1.0	866.8001040005037	0.0	144.0		1	1.0	0	1	2.0	0	446	0	0	0	unknown
7	1	8	9	37066	4001	0.6300712676020339	0	1.0	827.4130350000632	0.0			0	1.0	1	0	1.0	0	447	0	0	0	unknown
7	1	8	10	71777	4285	0.630163863999769	1	1.0	823.0440600000292	0.0	261.0		1	1.0	0	1	2.0	0	448	0	0	0	unknown
7	1	8	11	36068	475	0.6302101591136307	0	1.0	971.6073169993251	0.0			0	1.0	1	0	1.0	0	449	1	0	1	new
7	1	8	12	66892	7336	0.63025644805748	1	1.0	1102.5983810004618	0.0	323.0		1	1.0	0	1	2.0	0	450	0	0	0	unknown
7	1	8	13	15184	1800	0.63030274619814	0	1.0	1110.1070929998968	0.0			0	1.0	1	0	1.0	0	451	0	0	0	unknown
7	1	8	14	6810	9121	0.6303490402642637	1	0.0	1532.3827530000926	0.0	239.0		1	0.0	1	0	1.0	0	452	0	0	0	unknown
7	1	8	15	64547	7428	0.6303953274618834	0	1.0	1187.0235119995411	0.0			0	1.0	1	0	1.0	0	453	0	0	0	unknown
7	1	8	16	49317	5663	0.63044163165614	1	1.0	916.8204990000959	0.0	46.0		1	1.0	0	1	2.0	0	454	0	0	0	unknown
7	1	8	17	34308	6579	0.630487918970175	0	1.0	1280.0288980006371	0.0			0	1.0	1	0	1.0	0	455	0	0	0	unknown
7	1	8	18	34346	7917	0.6305342169944196	0	1.0	888.7107999998989	0.0			0	1.0	1	0	1.0	0	456	0	0	0	unknown
7	1	8	19	5953	3756	0.6305805083829908	1	0.0	1273.0176320001192	0.0	219.0		1	0.0	1	0	1.0	0	457	0	0	0	unknown
7	1	8	20	30933	6106	0.6306730975629761	1	1.0	1320.150499999727	0.0	187.0		1	1.0	0	1	2.0	0	458	0	0	0	unknown
7	1	8	21	16600	2186	0.630719385924749	0	1.0	1867.490946000544	0.0			0	1.0	1	0	1.0	0	459	0	0	0	unknown
7	1	8	22	48239	4615	0.6307656784774734	1	1.0	852.4952110001321	0.0	82.0		1	1.0	0	1	2.0	0	460	0	0	0	unknown
7	1	8	23	43817	4306	0.6308119818568229	0	1.0	1853.2476860000315	1.0			0	1.0	1	1	1.0	0	461	0	0	0	unknown
7	1	8	24	62906	5523	0.6308582704514265	0	1.0	1287.0400680003513	0.0			0	1.0	2	0	1.0	0	462	0	0	0	unknown
7	1	8	25	53162	7974	0.6309045701054856	1	0.0	965.3532279999126	0.0	205.0		1	0.0	1	0	1.0	0	463	0	0	0	unknown
7	1	8	26	43126	1196	0.6309508583508431	0	1.0	953.3486010004707	0.0			0	1.0	1	0	1.0	0	464	0	0	0	unknown
7	1	8	27	932	9718	0.6309970521833747	1	0.0	947.20342599976	0.0	317.0		1	0.0	1	0	1.0	0	465	0	0	0	unknown
7	1	8	28	723	9244	0.6310433582402765	0	1.0	2162.7780270000585	0.0			0	1.0	1	0	1.0	0	466	0	0	0	unknown
7	1	8	29	68923	2604	0.6310896455543115	0	1.0	1005.7759909996092	0.0			0	1.0	1	0	1.0	0	467	0	0	0	unknown
7	1	8	30	6163	4793	0.631135941366665	0	1.0	1140.8993089999055	0.0			0	1.0	1	0	1.0	0	468	0	0	0	unknown
7	1	8	31	71754	988	0.6312285276362672	0	1.0	2424.846726999931	0.0			0	1.0	1	0	1.0	0	469	1	0	1	new
7	1	8	32	15273	5894	0.6312748257769271	0	1.0	965.0020429999133	0.0			0	1.0	1	0	1.0	0	470	0	0	0	unknown
7	1	8	33	7166	1732	0.6313211204251274	0	1.0	1732.932360000632	0.0			0	1.0	1	0	1.0	0	471	0	0	0	unknown
7	1	8	34	49169	6066	0.6313674090197309	0	1.0	849.9851819997275	0.0			0	1.0	1	0	1.0	0	472	0	0	0	unknown
7	1	8	35	9345	7020	0.6314137092558667	0	1.0	1444.2435629998727	0.0			0	1.0	1	0	1.0	0	473	0	0	0	unknown
7	1	8	36	57800	9798	0.6314600043697282	0	1.0	847.0175420006852	0.0			0	1.0	1	0	1.0	0	474	0	0	0	unknown
7	1	8	37	13272	1771	0.6315062971552833	0	1.0	1549.731803999748	0.0			0	1.0	1	0	1.0	0	475	0	0	0	unknown
7	1	8	38	1409	5382	0.631552594481036	0	1.0	1208.484435000173	0.0			0	1.0	1	0	1.0	0	476	0	0	0	unknown
7	1	8	39	38501	8917	0.6315988779533654	0	1.0	902.9495369995856	0.0			0	1.0	1	0	1.0	0	477	0	0	0	unknown
7	1	8	40	25713	6311	0.6316451829625293	1	1.0	1270.9235210004408	0.0	122.0		1	1.0	0	1	2.0	0	478	0	0	0	unknown
7	1	8	41	66973	5514	0.6316914694616571	0	1.0	904.389459000413	0.0			0	1.0	1	0	1.0	0	479	0	0	0	unknown
7	1	8	42	19313	3924	0.631784062483348	0	1.0	707.4643440000729	0.0			0	1.0	1	0	1.0	0	480	0	0	0	unknown
7	1	8	43	68923	2604	0.6318303508451208	1	1.0	883.4606130003522	0.0	13.0		1	1.0	0	1	2.0	0	481	0	0	0	unknown
7	1	8	44	30104	1192	0.631876642582938	1	1.0	902.348890000212	0.0	38.0		1	1.0	0	1	2.0	0	482	0	0	0	unknown
7	1	8	45	22150	2755	0.6319229450309649	0	1.0	818.5499510000227	0.0			0	1.0	1	0	1.0	0	483	0	0	0	unknown
7	1	8	46	35741	9761	0.6319692390970885	0	1.0	1052.2556169999007	0.0			0	1.0	1	0	1.0	0	484	0	0	0	unknown
7	1	8	47	5433	1968	0.6320155303692445	0	1.0	1342.8368970007796	0.0			0	1.0	1	0	1.0	0	485	0	0	0	unknown
7	1	8	48	25035	7559	0.6320618210593238	1	1.0	1215.9109149997676	0.0	268.0		1	1.0	0	1	2.0	0	486	0	0	0	unknown
7	1	8	49	49099	1551	0.6321081217611207	0	1.0	1104.1697769996972	0.0			0	1.0	1	0	1.0	0	487	0	0	0	unknown
7	1	8	50	72122	6666	0.6321544115198776	1	0.0	1226.3466240001435	0.0	336.0		1	0.0	1	0	1.0	0	488	0	0	0	unknown
7	1	8	51	27348	8170	0.632200704072602	1	1.0	1139.2551420003656	0.0	63.0		1	1.0	0	1	2.0	0	489	0	0	0	unknown
7	1	8	52	5953	3756	0.632246907101944	1	1.0	1303.7879900002736	0.0	32.0	252.0	1	1.0	0	1	2.0	0	490	0	0	0	unknown
7	1	8	53	17438	2262	0.6322932001203297	0	1.0	1839.6549199997023	0.0			0	1.0	1	0	1.0	0	491	0	0	0	unknown
7	1	8	54	48130	4784	0.6323394927894695	1	1.0	912.8246150003177	0.0	95.0		1	1.0	0	1	2.0	0	492	0	0	0	unknown
7	1	8	55	71380	5714	0.6324320790590718	1	1.0	792.4253609999141	0.0	198.0		1	1.0	0	1	2.0	0	493	0	0	0	unknown
7	1	8	56	28108	1108	0.6324783724267035	1	1.0	1278.885784000522	0.0	279.0	389.0	1	1.0	0	1	2.0	0	494	0	0	0	unknown
7	1	8	57	26198	1224	0.6325246703345327	0	1.0	735.1178879998771	0.0			0	1.0	1	0	1.0	0	495	0	0	0	unknown
7	1	8	58	12492	9934	0.6325709657976403	0	1.0	2073.3859100000695	0.0			0	1.0	1	0	1.0	0	496	0	0	0	unknown
7	1	8	59	56290	1317	0.6326172597473487	0	1.0	1301.4791469995544	0.0			0	1.0	1	0	1.0	0	497	0	0	0	unknown
7	1	8	60	58145	805	0.6326635519508272	0	1.0	1066.819404999478	0.0			0	1.0	1	0	1.0	0	498	1	0	1	new
7	1	8	61	55219	5274	0.6327098443871363	0	1.0	1014.5014190002256	0.0			0	1.0	1	0	1.0	0	499	0	0	0	unknown
7	1	8	62	9056	5350	0.6327561443904414	0	1.0	853.1217830004606	0.0			0	1.0	1	0	1.0	0	500	0	0	0	unknown
7	1	9	1	17438	2262	0.635610208613798	1	1.0	1122.5828819997332	0.0	9.0		1	1.0	0	1	2.0	0	501	0	0	0	unknown
7	1	9	2	51580	6246	0.6356565005844458	1	1.0	980.4782100000012	0.0	149.0		1	1.0	0	1	2.0	0	502	0	0	0	unknown
7	1	9	3	18282	9272	0.6357027994235978	1	1.0	2032.1862000000688	1.0	92.0	203.0	1	1.0	1	1	2.0	0	503	0	0	0	unknown
7	1	9	4	61916	4741	0.6357490977970883	1	1.0	1312.6524040008007	0.0	242.0		1	1.0	0	1	2.0	0	504	0	0	0	unknown
7	1	9	5	11943	145	0.6357953844126313	0	1.0	1304.4551299999512	0.0			0	1.0	1	0	1.0	0	505	1	1	1	new
7	1	9	6	61800	6367	0.6358416937291622	0	1.0	885.9600280002269	0.0			0	1.0	1	0	1.0	0	506	0	0	0	unknown
7	1	9	7	11710	3548	0.6358879696344956	1	1.0	828.1972220001988	0.0	194.0	298.0	1	1.0	0	1	2.0	0	507	0	0	0	unknown
7	1	9	8	20267	2752	0.6359342883806675	0	1.0	1024.531510000088	0.0			0	1.0	1	0	1.0	0	508	0	0	0	unknown
7	1	9	9	19182	230	0.6359805553220212	1	1.0	1326.8007959995884	0.0	74.0		1	1.0	0	1	2.0	0	509	1	0	2	easy
7	1	9	10	50469	9922	0.6360268874559551	0	1.0	873.9971639997747	0.0			0	1.0	1	0	1.0	0	510	0	0	0	unknown
7	1	9	11	35480	5889	0.6360731439199298	0	1.0	1305.238279999685	0.0			0	1.0	1	0	1.0	0	511	0	0	0	unknown
7	1	9	12	44292	2377	0.636119479429908	0	1.0	816.131868999946	0.0			0	1.0	1	0	1.0	0	512	0	0	0	unknown
7	1	9	13	43292	1492	0.6361657372908666	1	0.0	1742.876674999934	0.0	209.0		1	0.0	1	0	1.0	0	513	0	0	0	unknown
7	1	9	14	5628	3194	0.636258325423114	1	1.0	1034.4153940004617	0.0	160.0	319.0	1	1.0	0	1	2.0	0	514	0	0	0	unknown
7	1	9	15	25339	1899	0.6363046750193461	0	1.0	954.8725229997218	0.0			0	1.0	1	0	1.0	0	515	0	0	0	unknown
7	1	9	16	9808	9049	0.6363509136717767	0	1.0	1342.6273590002893	0.0			0	1.0	1	0	1.0	0	516	0	0	0	unknown
7	1	9	17	64397	5081	0.6363972597755491	1	0.0	886.3214360007987	0.0	256.0		1	0.0	1	0	1.0	0	517	0	0	0	unknown
7	1	9	18	50841	8174	0.6364435016876085	1	1.0	681.8359359995156	0.0	141.0	180.0	1	1.0	0	1	2.0	0	518	0	0	0	unknown
7	1	9	19	47474	1624	0.6364898566389456	0	1.0	730.7742329994653	0.0			0	1.0	1	0	1.0	0	519	0	0	0	unknown
7	1	9	20	38818	511	0.6365360881900414	0	0.0	815.1879019997069	0.0			0	0.0	0	1	2.0	0	520	1	0	1	new
7	1	9	21	65788	4420	0.6365824532695114	0	1.0	776.3506720002624	0.0			0	1.0	1	0	1.0	0	521	0	0	0	unknown
7	1	9	22	68838	5745	0.6366286707343533	0	1.0	1802.9208510006356	0.0			0	1.0	1	0	1.0	0	522	0	0	0	unknown
7	1	9	23	4066	3492	0.6366750492015854	0	1.0	752.692943000511	0.0			0	1.0	1	0	1.0	0	523	0	0	0	unknown
7	1	9	24	66490	919	0.6367212584009394	0	1.0	886.467435000668	0.0			0	1.0	1	0	1.0	0	524	1	0	1	new
7	1	9	25	9545	5733	0.6368138530524446	0	1.0	1303.1069119997483	0.0			0	1.0	1	0	1.0	0	525	0	0	0	unknown
7	1	9	26	35560	8542	0.6368602499132975	0	1.0	762.3632909999286	0.0			0	1.0	1	0	1.0	0	526	0	0	0	unknown
7	1	9	27	43973	2220	0.636906444793567	0	1.0	1603.4868110000389	0.0			0	1.0	1	0	1.0	0	527	0	0	0	unknown
7	1	9	28	71233	984	0.636952846776694	0	1.0	1499.5948989999304	0.0			0	1.0	2	0	1.0	0	528	1	0	1	new
7	1	9	29	23724	7057	0.6369990326929837	0	0.0	2637.388101999932	0.0			0	0.0	0	1	2.0	0	529	0	0	0	unknown
7	1	9	30	68883	5896	0.6370454424759373	0	1.0	650.8049200001551	0.0			0	1.0	1	0	1.0	0	530	0	0	0	unknown
7	1	9	31	49675	7390	0.6370916209416463	0	1.0	726.2387820001096	0.0			0	1.0	1	0	1.0	0	531	0	0	0	unknown
7	1	9	32	55020	5139	0.6371380269993095	0	1.0	758.64491899938	0.0			0	1.0	1	0	1.0	0	532	0	0	0	unknown
7	1	9	33	65067	2320	0.6371842081425712	0	1.0	1209.8589279994485	0.0			0	1.0	1	0	1.0	0	533	0	0	0	unknown
7	1	9	34	5274	6169	0.6372304557589814	0	1.0	755.1897439998355	0.0			0	1.0	1	0	1.0	0	534	0	0	0	unknown
7	1	9	35	55696	4523	0.6372766917338594	1	0.0	1288.8200669995056	0.0	522.0		1	0.0	1	0	1.0	0	535	0	0	0	unknown
7	1	9	36	37769	7240	0.6373692874331027	0	1.0	1203.05463799923	0.0			0	1.0	1	0	1.0	0	536	0	0	0	unknown
7	1	9	37	25879	6069	0.6374155747471377	0	1.0	1063.3393690004596	0.0			0	1.0	1	0	1.0	0	537	0	0	0	unknown
7	1	9	38	40547	6817	0.6374618675326928	0	1.0	1345.3591199995572	0.0			0	1.0	1	0	1.0	0	538	0	0	0	unknown
7	1	9	39	65067	2320	0.6375081670703366	1	1.0	866.8572930000664	0.0	5.0		1	1.0	0	1	2.0	0	539	0	0	0	unknown
7	1	9	40	9140	3951	0.6375544596230611	1	0.0	964.0615959997376	0.0	291.0		1	0.0	1	0	1.0	0	540	0	0	0	unknown
7	1	9	41	22797	7568	0.6376007522922009	0	1.0	902.424219999375	0.0			0	1.0	1	0	1.0	0	541	0	0	0	unknown
7	1	9	42	65547	7447	0.637647051597014	0	1.0	1011.9811129989102	0.0			0	1.0	1	0	1.0	0	542	0	0	0	unknown
7	1	9	43	64958	6540	0.6376933485735207	0	1.0	918.9484789985728	0.0			0	1.0	1	0	1.0	0	543	0	0	0	unknown
7	1	9	44	20631	2255	0.6377396335592493	0	1.0	1108.0182149999018	0.0			0	1.0	1	0	1.0	0	544	0	0	0	unknown
7	1	9	45	40561	9088	0.6378322251839563	0	1.0	1217.4319220011967	0.0			0	1.0	1	0	1.0	0	545	0	0	0	unknown
7	1	9	46	4764	9124	0.6378785239066928	0	1.0	2032.2970979996169	0.0			0	1.0	1	0	1.0	0	546	0	0	0	unknown
7	1	9	47	65135	3293	0.6379248152952641	1	1.0	1170.1680949990987	0.0	158.0	187.0	1	1.0	0	1	2.0	0	547	0	0	0	unknown
7	1	9	48	57855	2821	0.6379711076151579	0	1.0	1156.267165999452	0.0			0	1.0	1	0	1.0	0	548	0	0	0	unknown
7	1	9	49	15148	4095	0.6380174055229872	0	1.0	1562.7853509995475	0.0			0	1.0	1	0	1.0	0	549	0	0	0	unknown
7	1	9	50	4637	4751	0.6380636993562802	1	0.0	1410.7578130006004	0.0	328.0		1	0.0	1	0	1.0	0	550	0	0	0	unknown
7	1	9	51	22150	2755	0.6381099896971136	1	1.0	786.6224770004918	0.0	67.0		1	1.0	0	1	2.0	0	551	0	0	0	unknown
7	1	9	52	5114	7655	0.6381562801543623	0	1.0	1058.7434560002291	0.0			0	1.0	1	0	1.0	0	552	0	0	0	unknown
7	1	9	53	72324	3807	0.6382025775965303	0	1.0	1183.9051469996775	0.0			0	1.0	1	0	1.0	0	553	0	0	0	unknown
7	1	9	54	65868	3457	0.6382488773670048	1	1.0	702.1060549996037	0.0	267.0	353.0	1	1.0	0	1	2.0	0	554	0	0	0	unknown
7	1	9	55	58333	8109	0.6383414649171754	1	1.0	1320.990444999552	0.0	115.0		1	1.0	0	1	2.0	0	555	0	0	0	unknown
7	1	9	56	68367	6054	0.6383877554908394	0	1.0	1548.4768559999793	0.0			0	1.0	1	0	1.0	0	556	0	0	0	unknown
7	1	9	57	29494	9508	0.6384340530494228	0	1.0	779.5940920004795	0.0			0	1.0	1	0	1.0	0	557	0	0	0	unknown
7	1	9	58	12683	3768	0.6384803473483771	0	1.0	821.1567210000794	0.0			0	1.0	1	0	1.0	0	558	0	0	0	unknown
7	1	9	59	32844	6410	0.6385265360586345	0	1.0	1119.8068780013273	0.0			0	1.0	1	0	1.0	0	559	0	0	0	unknown
7	1	9	60	13124	2328	0.6385728382738307	0	1.0	988.107074999789	0.0			0	1.0	1	0	1.0	0	560	0	0	0	unknown
7	1	9	61	72324	3807	0.6386191330384463	1	1.0	1059.2208109992498	0.0	7.0		1	1.0	0	1	2.0	0	561	0	0	0	unknown
7	1	9	62	8814	7697	0.6386654225643724	0	1.0	941.8956700010312	0.0			0	1.0	1	0	1.0	0	562	0	0	0	unknown
7	1	9	63	56805	8816	0.6387117141857743	0	1.0	886.8235509999067	0.0			0	1.0	1	0	1.0	0	563	0	0	0	unknown
7	1	10	1	68733	3444	0.6403047126950696	1	1.0	1010.8135090013092	0.0	314.0	482.0	1	1.0	0	1	2.0	0	564	0	0	0	unknown
7	1	10	2	29498	7744	0.6403510702075436	0	1.0	674.7836129998177	0.0			0	1.0	1	0	1.0	0	565	0	0	0	unknown
7	1	10	3	30933	6106	0.640397293958813	1	1.0	902.5213639997672	0.0	107.0	295.0	1	1.0	0	1	2.0	0	566	0	0	0	unknown
7	1	10	4	65041	1126	0.640443675685674	0	1.0	860.3578980000749	0.0			0	1.0	1	0	1.0	0	567	0	0	0	unknown
7	1	10	5	8091	7339	0.6404898894252254	0	1.0	719.2198840002675	0.0			0	1.0	1	0	1.0	0	568	0	0	0	unknown
7	1	10	6	64664	2913	0.6405362634686753	0	0.0	1700.2776119988991	0.0			0	0.0	0	1	2.0	0	569	0	0	0	unknown
7	1	10	7	58781	7572	0.6405824706889688	0	1.0	1051.0783970003104	0.0			0	1.0	1	0	1.0	0	570	0	0	0	unknown
7	1	10	8	14231	8516	0.640628861146979	1	1.0	1011.3362789998064	0.0	202.0		1	1.0	0	1	2.0	0	571	0	0	0	unknown
7	1	10	9	51198	6139	0.640675063477829	0	1.0	1458.6349789988162	0.0			0	1.0	1	0	1.0	0	572	0	0	0	unknown
7	1	10	10	46086	9261	0.6407676507951691	0	1.0	2037.7288339986987	0.0			0	1.0	1	0	1.0	0	573	0	0	0	unknown
7	1	10	11	29803	8315	0.6408140520798042	1	1.0	835.1757430009455	0.0	167.0	175.0	1	1.0	0	1	2.0	0	574	0	0	0	unknown
7	1	10	12	3627	14	0.6408602371811866	0	1.0	1154.4886940009746	0.0			0	1.0	1	0	1.0	0	575	1	0	1	new
7	1	10	13	64349	5660	0.6409066488267853	1	0.0	1018.9569079993817	0.0	178.0		1	0.0	1	0	1.0	0	576	0	0	0	unknown
7	1	10	14	57662	6692	0.6409528194926679	1	1.0	903.6211700004061	0.0	143.0	398.0	1	1.0	0	1	2.0	0	577	0	0	0	unknown
7	1	10	15	62345	4211	0.6409990323008969	0	1.0	709.3123919985374	0.0			0	1.0	1	0	1.0	0	578	0	0	0	unknown
7	1	10	16	64599	9571	0.6410453146090731	0	1.0	1155.1176299999497	0.0			0	1.0	1	0	1.0	0	579	0	0	0	unknown
7	1	10	17	6722	9570	0.6410916164750233	0	1.0	792.261929000233	0.0			0	1.0	1	0	1.0	0	580	0	0	0	unknown
7	1	10	18	10683	4400	0.6411379083292558	0	1.0	1003.1402590011566	0.0			0	1.0	1	0	1.0	0	581	0	0	0	unknown
7	1	10	19	43008	8200	0.6411841966910287	0	1.0	829.5044129990856	0.0			0	1.0	1	0	1.0	0	582	0	0	0	unknown
7	1	10	20	35186	5345	0.6412304914556443	0	1.0	1134.1679429988287	0.0			0	1.0	1	0	1.0	0	583	0	0	0	unknown
7	1	10	21	18214	4585	0.6413230823818594	0	1.0	2109.3254530005647	0.0			0	1.0	1	0	1.0	0	584	0	0	0	unknown
7	1	10	22	64397	5081	0.6413693765643984	1	1.0	777.3968700003024	0.0	67.0	324.0	1	1.0	0	1	2.0	0	585	0	0	0	unknown
7	1	10	23	52227	7247	0.641415666323155	0	1.0	687.082645999908	0.0			0	1.0	1	0	1.0	0	586	0	0	0	unknown
7	1	10	24	38649	5960	0.6414619585266336	0	1.0	866.9578220014955	0.0			0	1.0	1	0	1.0	0	587	0	0	0	unknown
7	1	10	25	65492	6843	0.6415082550374791	1	1.0	903.3736319997842	0.0	244.0	485.0	1	1.0	0	1	2.0	0	588	0	0	0	unknown
7	1	10	26	50591	2726	0.6415545500349253	0	1.0	939.9785340010567	0.0			0	1.0	1	0	1.0	0	589	0	0	0	unknown
7	1	10	27	71777	4285	0.6416008471278473	1	1.0	1376.5313280000555	0.0	141.0	403.0	1	1.0	0	1	2.0	0	590	0	0	0	unknown
7	1	10	28	36512	7449	0.6416471430566161	0	0.0	2134.758663998582	0.0			0	0.0	0	1	2.0	0	591	0	0	0	unknown
7	1	10	29	11057	3909	0.6416934310691431	0	1.0	609.8584860010305	0.0			0	1.0	1	0	1.0	0	592	0	0	0	unknown
7	1	10	30	2287	6194	0.6417860287474468	0	1.0	1302.6992190007147	0.0			0	1.0	1	0	1.0	0	593	0	0	0	unknown
7	1	10	31	65479	3376	0.6418323199031875	1	1.0	985.2937159994326	0.0	484.0		1	1.0	0	1	2.0	0	594	0	0	0	unknown
7	1	10	32	836	3500	0.6418786109425128	0	1.0	1407.4955860014595	0.0			0	1.0	1	0	1.0	0	595	0	0	0	unknown
7	1	10	33	44770	6752	0.6419249087339267	0	1.0	1054.7328909997304	0.0			0	1.0	1	0	1.0	0	596	0	0	0	unknown
7	1	10	34	60926	4739	0.6419711940689012	0	1.0	679.4564049996552	0.0			0	1.0	1	0	1.0	0	597	0	0	0	unknown
7	1	10	35	51911	3456	0.6420174922095611	0	1.0	909.0993879999587	0.0			0	1.0	1	0	1.0	0	598	0	0	0	unknown
7	1	10	36	19182	230	0.6420637828996405	1	1.0	669.1729659996781	0.0	89.0	164.0	1	1.0	0	1	2.0	0	599	1	0	3	easy
7	1	10	37	45596	616	0.6421100762672722	1	1.0	1423.154912999962	0.0	253.0		1	1.0	0	1	2.0	0	600	1	1	2	easy
7	1	10	38	14529	173	0.6421563789481297	0	1.0	1109.114316999694	0.0			0	1.0	1	0	1.0	0	601	1	0	1	new
7	1	10	39	39086	2163	0.6422026642831042	0	1.0	714.7286729996267	0.0			0	1.0	1	0	1.0	0	602	0	0	0	unknown
7	1	10	40	42525	9008	0.6422951580025255	0	1.0	2217.266967998512	0.0			0	1.0	1	0	1.0	0	603	0	0	0	unknown
7	1	10	41	21916	4465	0.6423414550954475	0	1.0	1066.4509649996035	0.0			0	1.0	1	0	1.0	0	604	0	0	0	unknown
7	1	10	42	7051	7198	0.6423877481138333	0	1.0	1703.7157260001547	0.0			0	1.0	1	0	1.0	0	605	0	0	0	unknown
7	1	10	43	7995	5817	0.6424340405501425	0	1.0	804.3004280007153	0.0			0	1.0	1	0	1.0	0	606	0	0	0	unknown
7	1	10	44	42960	6148	0.6424803375266492	0	1.0	939.7231109996936	0.0			0	1.0	1	0	1.0	0	607	0	0	0	unknown
7	1	10	45	20808	4356	0.6425266277510672	0	1.0	1366.9299480006885	0.0			0	1.0	1	0	1.0	0	608	0	0	0	unknown
7	1	10	46	61449	4186	0.6425729227485135	1	0.0	1527.6401810006064	0.0	494.0		1	0.0	1	0	1.0	0	609	0	0	0	unknown
7	1	10	47	14366	1703	0.6426192243816331	1	0.0	1202.8813520009862	0.0	570.0		1	0.0	1	0	1.0	0	610	0	0	0	unknown
7	1	10	48	18754	9294	0.6426655105315148	0	1.0	782.0301070005371	0.0			0	1.0	1	0	1.0	0	611	0	0	0	unknown
7	1	10	49	25713	6311	0.6427118140272796	1	1.0	1027.9169750010624	0.0	133.0	256.0	1	1.0	0	1	2.0	0	612	0	0	0	unknown
7	1	10	50	48675	9492	0.6427581066964194	0	1.0	906.05275300004	0.0			0	1.0	1	0	1.0	0	613	0	0	0	unknown
7	1	10	51	46840	8688	0.6428043921478092	0	1.0	927.1234919997368	0.0			0	1.0	1	0	1.0	0	614	0	0	0	unknown
7	1	10	52	26845	3319	0.6428969815606251	0	1.0	904.3154819992195	0.0			0	1.0	1	0	1.0	0	615	0	0	0	unknown
7	1	10	53	21587	1769	0.6429432881996034	0	1.0	902.8741479996824	0.0			0	1.0	1	0	1.0	0	616	0	0	0	unknown
7	1	10	54	53909	8140	0.6429895721375942	0	1.0	1021.0233990001142	0.0			0	1.0	1	0	1.0	0	617	0	0	0	unknown
7	1	10	55	72908	7561	0.6430358717916533	0	0.0	1988.792997000928	0.0			0	0.0	0	1	2.0	0	618	0	0	0	unknown
7	1	10	56	21465	2304	0.6430821693502367	0	1.0	764.2514250001113	0.0			0	1.0	1	0	1.0	0	619	0	0	0	unknown
7	1	10	57	65462	2481	0.6431284514255821	0	1.0	730.4922860002989	0.0			0	1.0	1	0	1.0	0	620	0	0	0	unknown
7	1	10	58	43436	2880	0.6431747478200122	1	1.0	2870.3272319999087	1.0	402.0		1	1.0	1	1	2.0	0	621	0	0	0	unknown
7	1	10	59	16600	2186	0.6432210488710552	1	1.0	1388.602835000711	0.0	162.0		1	1.0	0	1	2.0	0	622	0	0	0	unknown
7	1	10	60	31248	2935	0.6432673416566103	0	1.0	1056.1119450012484	0.0			0	1.0	1	0	1.0	0	623	0	0	0	unknown
7	1	10	61	338	5193	0.64331362885423	0	1.0	682.0312350009772	0.0			0	1.0	2	0	1.0	0	624	0	0	0	unknown
7	1	10	62	9918	116	0.6433599245501682	1	1.0	816.7157340012636	0.0	267.0		1	1.0	0	1	2.0	0	625	1	0	2	easy
7	1	11	1	56684	9647	0.6448961235582829	0	1.0	857.0109699994645	0.0			0	1.0	1	0	1.0	0	626	0	0	0	unknown
7	1	11	2	43469	1791	0.6449424219317734	0	0.0	1074.7170159993402	0.0			0	0.0	0	1	2.0	0	627	0	0	0	unknown
7	1	11	3	30034	1407	0.6449887034250423	0	1.0	2357.079605999388	0.0			0	1.0	1	0	1.0	0	628	0	0	0	unknown
7	1	11	4	56043	770	0.6450350058730691	0	0.0	1089.8822479994124	0.0			0	0.0	0	1	2.0	0	629	1	0	1	new
7	1	11	5	5602	2830	0.6450812995899468	0	1.0	710.1007199999003	0.0			0	1.0	1	0	1.0	0	630	0	0	0	unknown
7	1	11	6	16195	2129	0.6451276037842035	0	1.0	1481.108594000034	0.0			0	1.0	1	0	1.0	0	631	0	0	0	unknown
7	1	11	7	42656	2579	0.6451738872565329	0	1.0	1774.352739999813	0.0			0	1.0	1	0	1.0	0	632	0	0	0	unknown
7	1	11	8	3970	3014	0.6452201887732371	1	1.0	1316.447679999328	0.0	444.0	540.0	1	1.0	0	1	2.0	0	633	0	0	0	unknown
7	1	11	9	34239	459	0.6452664682874456	0	1.0	2390.8978389990807	0.0			0	1.0	1	0	1.0	0	634	1	0	1	new
7	1	11	10	67191	2642	0.6453127688728272	0	1.0	1179.627685000014	0.0			0	1.0	1	0	1.0	0	635	0	0	0	unknown
7	1	11	11	6911	8996	0.645359058282338	0	1.0	924.504667000292	0.0			0	1.0	1	0	1.0	0	636	0	0	0	unknown
7	1	11	12	68838	5745	0.6454053702764213	1	1.0	855.2751000006538	0.0	114.0		1	1.0	0	1	2.0	0	637	0	0	0	unknown
7	1	11	13	12740	3410	0.6454979608533903	0	1.0	861.6992389997904	0.0			0	1.0	1	0	1.0	0	638	0	0	0	unknown
7	1	11	14	62350	8116	0.6455443246522918	0	1.0	1310.118485998828	0.0			0	1.0	1	0	1.0	0	639	0	0	0	unknown
7	1	11	15	9545	5733	0.6455906375776976	1	1.0	2065.6803580004635	0.0	114.0		1	1.0	0	1	2.0	0	640	0	0	0	unknown
7	1	11	16	9140	3951	0.6456369154620915	1	1.0	926.836438000464	0.0	100.0	392.0	1	1.0	0	1	2.0	0	641	0	0	0	unknown
7	1	11	17	66588	1482	0.6456832330441102	0	1.0	563.7578269997903	0.0			0	1.0	1	0	1.0	0	642	0	0	0	unknown
7	1	11	18	43618	4599	0.6457295134896412	0	1.0	1156.9338370009064	0.0			0	1.0	1	0	1.0	0	643	0	0	0	unknown
7	1	11	19	30871	4040	0.6457758259493857	0	1.0	1224.5299340011115	0.0			0	1.0	1	0	1.0	0	644	0	0	0	unknown
7	1	11	20	39623	4982	0.6458221130305901	0	1.0	2451.4168599998807	0.0			0	1.0	1	0	1.0	0	645	0	0	0	unknown
7	1	11	21	5432	8474	0.6458682992961257	0	1.0	785.2269070008333	0.0			0	1.0	2	0	1.0	0	646	0	0	0	unknown
7	1	11	22	1661	9657	0.6459145854460075	1	1.0	848.8813750009285	0.0	321.0		1	1.0	0	1	2.0	0	647	0	0	0	unknown
7	1	11	23	57695	6168	0.6460071826586499	0	1.0	924.2451930003882	0.0			0	1.0	1	0	1.0	0	648	0	0	0	unknown
7	1	11	24	67586	6537	0.6460533838253468	0	1.0	2055.345262000628	0.0			0	1.0	1	0	1.0	0	649	0	0	0	unknown
7	1	11	25	4476	4759	0.6460996711393818	0	1.0	802.8516350004794	0.0			0	1.0	1	0	1.0	0	650	0	0	0	unknown
7	1	11	26	66973	5514	0.646145969745703	1	0.0	718.5916090002138	0.0	171.0		1	0.0	1	0	1.0	0	651	0	0	0	unknown
7	1	11	27	57934	4620	0.6461922684684395	0	1.0	647.8080910001154	0.0			0	1.0	1	0	1.0	0	652	0	0	0	unknown
7	1	11	28	50167	7333	0.646238560671918	0	1.0	681.983800001035	0.0			0	1.0	1	0	1.0	0	653	0	0	0	unknown
7	1	11	29	46355	1069	0.6462848541559651	0	1.0	816.0228130000178	0.0			0	1.0	1	0	1.0	0	654	0	0	0	unknown
7	1	11	30	22070	1218	0.6463311408879235	0	1.0	959.3946139993933	0.0			0	1.0	1	0	1.0	0	655	0	0	0	unknown
7	1	11	31	63752	1512	0.6463774379808455	0	1.0	1002.5980710015574	0.0			0	1.0	1	0	1.0	0	656	0	0	0	unknown
7	1	11	32	43618	4599	0.6464237316977232	1	1.0	733.1322310001269	0.0	13.0		1	1.0	0	1	2.0	0	657	0	0	0	unknown
7	1	11	33	14936	1040	0.6464700319338589	0	1.0	1332.9218899998523	0.0			0	1.0	1	0	1.0	0	658	0	0	0	unknown
7	1	11	34	47474	1624	0.6465163208777084	1	1.0	961.7340770000736	0.0	139.0		1	1.0	0	1	2.0	0	659	0	0	0	unknown
7	1	11	35	45006	1808	0.6466089049354194	1	1.0	973.9304690010612	0.0	333.0		1	1.0	0	1	2.0	0	660	0	0	0	unknown
7	1	11	36	62157	4690	0.6466551948105916	0	1.0	767.6136200007022	0.0			0	1.0	1	0	1.0	0	661	0	0	0	unknown
7	1	11	37	34448	5019	0.6467014893423765	0	1.0	766.6743989993846	0.0			0	1.0	1	0	1.0	0	662	0	0	0	unknown
7	1	11	38	23783	5219	0.6467477885307744	0	1.0	983.3820509993528	0.0			0	1.0	1	0	1.0	0	663	0	0	0	unknown
7	1	11	39	64186	9102	0.6467940863221883	0	1.0	1463.24875999926	0.0			0	1.0	1	0	1.0	0	664	0	0	0	unknown
7	1	11	40	1208	9621	0.6468403761973603	1	1.0	1865.1360090007076	0.0	547.0		1	1.0	0	1	2.0	0	665	0	0	0	unknown
7	1	11	41	55240	5874	0.6468866799259558	0	1.0	702.8259359994992	0.0			0	1.0	1	0	1.0	0	666	0	0	0	unknown
7	1	11	42	14122	169	0.6469329607207328	0	1.0	684.1072919996805	0.0			0	1.0	1	0	1.0	0	667	1	0	1	new
7	1	11	43	40561	9088	0.6469792630523443	1	0.0	883.8175560013043	0.0	122.0		1	0.0	1	0	1.0	0	668	0	0	0	unknown
7	1	11	44	8788	4637	0.6470718503696843	0	1.0	1235.980418001418	0.0			0	1.0	1	0	1.0	0	669	0	0	0	unknown
7	1	11	45	12623	4522	0.6471181454835458	0	1.0	773.5767920003126	0.0			0	1.0	1	0	1.0	0	670	0	0	0	unknown
7	1	11	46	26414	7224	0.647164438618347	0	1.0	1464.6610489999148	0.0			0	1.0	1	0	1.0	0	671	0	0	0	unknown
7	1	11	47	38031	3822	0.6472107333829626	0	1.0	1101.6429720002632	0.0			0	1.0	1	0	1.0	0	672	0	0	0	unknown
7	1	11	48	40107	6407	0.6472570315236225	0	1.0	610.3434760007076	0.0			0	1.0	1	0	1.0	0	673	0	0	0	unknown
7	1	11	49	23269	8393	0.6473033174406737	0	1.0	1301.3686369995412	0.0			0	1.0	1	0	1.0	0	674	0	0	0	unknown
7	1	11	50	62350	8116	0.6473495220998302	1	1.0	725.7684619999054	0.0	35.0		1	1.0	0	1	2.0	0	675	0	0	0	unknown
7	1	11	51	41228	2044	0.6473958131391555	0	1.0	773.2892210005957	0.0			0	1.0	1	0	1.0	0	676	0	0	0	unknown
7	1	11	52	69842	3862	0.6474421090679243	1	1.0	1830.6149949985409	0.0	247.0		1	1.0	0	1	2.0	0	677	0	0	0	unknown
7	1	11	53	34612	8019	0.6474883967312052	0	1.0	1106.3048140003957	0.0			0	1.0	1	0	1.0	0	678	0	0	0	unknown
7	1	11	54	30034	1407	0.6475809896364808	1	1.0	1382.0096560011734	0.0	50.0		1	1.0	0	1	2.0	0	679	0	0	0	unknown
7	1	11	55	12911	7367	0.6476272814907132	1	0.0	2445.8684219989664	0.0	589.0		1	0.0	1	0	1.0	0	680	0	0	0	unknown
7	1	11	56	34202	8706	0.6476735726464539	0	1.0	1035.2222900000925	0.0			0	1.0	1	0	1.0	0	681	0	0	0	unknown
7	1	11	57	62257	2753	0.6477198675274848	0	1.0	1303.7275369988492	0.0			0	1.0	1	0	1.0	0	682	0	0	0	unknown
7	1	11	58	5467	3802	0.6477661613607779	0	1.0	672.6369990010426	0.0			0	1.0	1	0	1.0	0	683	0	0	0	unknown
7	1	11	59	1661	9657	0.6478124562418088	1	1.0	838.137712000389	0.0	36.0	358.0	1	1.0	0	1	2.0	0	684	0	0	0	unknown
7	1	11	60	71380	5714	0.6478587501915171	1	1.0	1031.4876819993515	0.0	191.0	390.0	1	1.0	0	1	2.0	0	685	0	0	0	unknown
7	1	11	61	26352	347	0.6479050470516085	0	1.0	966.2200269995081	0.0			0	1.0	1	0	1.0	0	686	1	0	1	new
7	1	11	62	12623	4522	0.647951343213208	1	1.0	756.7868730002374	0.0	16.0		1	1.0	0	1	2.0	0	687	0	0	0	unknown
7	1	11	63	62870	5102	0.6479976362315937	0	1.0	1562.7403790003882	0.0			0	1.0	1	0	1.0	0	688	0	0	0	unknown
7	1	12	1	21965	1122	0.6495308330049738	0	1.0	1575.3860979984893	0.0			0	1.0	1	0	1.0	0	689	0	0	0	unknown
7	1	12	2	4787	36	0.6495771240442991	1	0.0	919.6105789997091	0.0	286.0		1	0.0	1	0	1.0	0	690	1	0	2	easy
7	1	12	3	2455	5273	0.6496234217192977	0	1.0	708.5811220003961	0.0			0	1.0	1	0	1.0	0	691	0	0	0	unknown
7	1	12	4	16055	9335	0.6496697217226028	1	1.0	951.1255010002061	0.0	269.0		1	1.0	0	1	2.0	0	692	0	0	0	unknown
7	1	12	5	12740	3410	0.6497160084545612	1	1.0	762.9290900003981	0.0	54.0		1	1.0	0	1	2.0	0	693	0	0	0	unknown
7	1	12	6	7887	5670	0.6497623048489913	0	1.0	790.220163999038	0.0			0	1.0	2	0	1.0	0	694	0	0	0	unknown
7	1	12	7	25187	5449	0.6498085021739824	0	0.0	963.5991100003592	0.0			0	0.0	0	1	2.0	0	695	0	0	0	unknown
7	1	12	8	37554	4580	0.6498547985684126	0	1.0	1054.195171000174	0.0			0	1.0	1	0	1.0	0	696	0	0	0	unknown
7	1	12	9	48440	1994	0.6499010901898145	0	1.0	970.4625869999289	0.0			0	1.0	1	0	1.0	0	697	0	0	0	unknown
7	1	12	10	56138	1386	0.6499473801814019	0	1.0	1337.6943319999555	0.0			0	1.0	1	0	1.0	0	698	0	0	0	unknown
7	1	12	11	11894	9828	0.6499936725012958	0	0.0	591.9181519984704	0.0			0	0.0	0	1	2.0	0	699	0	0	0	unknown
7	1	12	12	13143	9484	0.6500399762298911	1	1.0	977.7954689998296	0.0	371.0		1	1.0	0	1	2.0	0	700	0	0	0	unknown
7	1	12	13	25962	1490	0.6500862586544826	0	1.0	1003.1717860001664	0.0			0	1.0	1	0	1.0	0	701	0	0	0	unknown
7	1	12	14	11160	131	0.6501788541208952	0	1.0	942.5379720014461	0.0			0	1.0	1	0	1.0	0	702	1	0	1	new
7	1	12	15	53404	5518	0.650225143530406	0	1.0	609.4895799997175	0.0			0	1.0	1	0	1.0	0	703	0	0	0	unknown
7	1	12	16	60162	1103	0.6502714434172958	0	1.0	1646.1710669991587	0.0			0	1.0	1	0	1.0	0	704	0	0	0	unknown
7	1	12	17	31858	5354	0.6503177369013428	0	0.0	1771.5887190006467	0.0			0	0.0	0	1	2.0	0	705	0	0	0	unknown
7	1	12	18	21872	8405	0.6503640303853899	0	1.0	815.802547000203	0.0			0	1.0	1	0	1.0	0	706	0	0	0	unknown
7	1	12	19	41986	4272	0.6504103151382878	0	1.0	1025.1674629998888	0.0			0	1.0	1	0	1.0	0	707	0	0	0	unknown
7	1	12	20	68290	9513	0.6504566160729154	0	1.0	1202.5128039986157	0.0			0	1.0	1	0	1.0	0	708	0	0	0	unknown
7	1	12	21	11815	7408	0.6505029102554544	0	1.0	904.1401270005736	0.0			0	1.0	1	0	1.0	0	709	0	0	0	unknown
7	1	12	22	64664	2913	0.6505492039723321	1	0.0	2672.1397130004334	0.0	140.0		1	0.0	1	0	1.0	0	710	0	0	0	unknown
7	1	12	23	24902	1834	0.6505955016473308	0	0.0	1103.9583689998835	0.0			0	0.0	0	1	2.0	0	711	0	0	0	unknown
7	1	12	24	30947	7141	0.6506880871020257	0	1.0	1002.322610000192	0.0			0	1.0	1	0	1.0	0	712	0	0	0	unknown
7	1	12	25	45932	1784	0.6507343834964558	0	0.0	2542.765658999997	0.0			0	0.0	0	1	2.0	0	713	0	0	0	unknown
7	1	12	26	56695	3880	0.650780678493902	0	1.0	676.4208240001608	0.0			0	1.0	1	0	1.0	0	714	0	0	0	unknown
7	1	12	27	30034	1407	0.6508269760524854	1	1.0	875.4648410013034	0.0	35.0	86.0	1	1.0	0	1	2.0	0	715	0	0	0	unknown
7	1	12	28	59714	5778	0.6508732656948268	0	1.0	826.8811820016707	0.0			0	1.0	1	0	1.0	0	716	0	0	0	unknown
7	1	12	29	38341	5306	0.6509195608086884	0	1.0	903.2100990007165	0.0			0	1.0	1	0	1.0	0	717	0	0	0	unknown
7	1	12	30	9197	6677	0.6509658468421547	0	1.0	1028.4863840006435	0.0			0	1.0	1	0	1.0	0	718	0	0	0	unknown
7	1	12	31	2977	6378	0.6510121438186615	0	1.0	933.3456309996109	0.0			0	1.0	1	0	1.0	0	719	0	0	0	unknown
7	1	12	32	38655	2451	0.6510584406787528	1	1.0	1086.9421500010503	0.0	305.0		1	1.0	0	1	2.0	0	720	0	0	0	unknown
7	1	12	33	38031	3822	0.651104641612619	1	1.0	2065.9083819991793	0.0	48.0		1	1.0	0	1	2.0	0	721	0	0	0	unknown
7	1	12	34	33883	5870	0.651197220897302	0	1.0	884.8529129991219	0.0			0	1.0	1	0	1.0	0	722	0	0	0	unknown
7	1	12	35	34847	2567	0.6512435207841917	0	1.0	2239.243369000178	0.0			0	1.0	1	0	1.0	0	723	0	0	0	unknown
7	1	12	36	64386	1446	0.6512898151995614	0	1.0	1106.796309000856	0.0			0	1.0	1	0	1.0	0	724	0	0	0	unknown
7	1	12	37	14529	173	0.6513361046090722	1	1.0	1686.1022670000239	0.0	123.0		1	1.0	0	1	2.0	0	725	1	0	2	easy
7	1	12	38	19156	5360	0.6513823984423652	0	1.0	3206.9978939998687	0.0			0	1.0	1	0	1.0	0	726	0	0	0	unknown
7	1	12	39	57695	6168	0.6514287003083153	1	1.0	1476.7058750003343	0.0	78.0		1	1.0	0	1	2.0	0	727	0	0	0	unknown
7	1	12	40	43618	4599	0.6514749939087778	1	1.0	686.7294419989776	0.0	70.0	84.0	1	1.0	0	1	2.0	0	728	0	0	0	unknown
7	1	12	41	3038	4614	0.6515212822705507	0	0.0	1845.22128700155	0.0			0	0.0	0	1	2.0	0	729	0	0	0	unknown
7	1	12	42	22252	8417	0.6515675741247832	0	1.0	727.8552959996887	0.0			0	1.0	1	0	1.0	0	730	0	0	0	unknown
7	1	12	43	53338	2034	0.6516601694747804	0	1.0	805.0726780002152	0.0			0	1.0	1	0	1.0	0	731	0	0	0	unknown
7	1	12	44	29838	398	0.6517064596991986	0	1.0	1973.1781659993433	0.0			0	1.0	1	0	1.0	0	732	1	0	1	new
7	1	12	45	31249	8629	0.65175274934154	0	1.0	2885.7456850000744	0.0			0	1.0	1	0	1.0	0	733	0	0	0	unknown
7	1	12	46	65768	1411	0.6517990550491958	0	1.0	776.3425470002403	0.0			0	1.0	1	0	1.0	0	734	0	0	0	unknown
7	1	12	47	30990	2152	0.651845341664739	0	1.0	1050.0884819994099	0.0			0	1.0	1	0	1.0	0	735	0	0	0	unknown
7	1	12	48	29102	6858	0.6518916321219876	0	1.0	881.0117060002085	0.0			0	1.0	1	0	1.0	0	736	0	0	0	unknown
7	1	12	49	20732	9391	0.6519379306118935	0	1.0	1623.219732000507	0.0			0	1.0	1	0	1.0	0	737	0	0	0	unknown
7	1	12	50	31858	5354	0.6519842301495373	1	1.0	1044.6459020004113	0.0	32.0		1	1.0	0	1	2.0	0	738	0	0	0	unknown
7	1	12	51	58145	805	0.6520305240992456	1	1.0	1175.2318550006748	0.0	240.0		1	1.0	0	1	2.0	0	739	1	0	2	easy
7	1	12	52	60193	4665	0.6521231137448921	0	1.0	1163.1405520001863	0.0			0	1.0	1	0	1.0	0	740	0	0	0	unknown
7	1	12	53	72908	7561	0.6521694072289392	1	0.0	2128.9473969991377	0.0	122.0		1	0.0	1	0	1.0	0	741	0	0	0	unknown
7	1	12	54	24627	8160	0.6522156924474984	0	1.0	1216.2327170008211	0.0			0	1.0	1	0	1.0	0	742	0	0	0	unknown
7	1	12	55	18682	2161	0.6522619889583438	0	1.0	884.322437999799	0.0			0	1.0	1	0	1.0	0	743	0	0	0	unknown
7	1	12	56	23660	7903	0.6523081940831617	0	1.0	1539.3731459989795	0.0			0	1.0	1	0	1.0	0	744	0	0	0	unknown
7	1	12	57	55659	7560	0.6523544783703982	0	1.0	1209.0994480004156	0.0			0	1.0	1	0	1.0	0	745	0	0	0	unknown
7	1	12	58	31669	2370	0.6524007793050259	0	0.0	1161.3823039988347	0.0			0	0.0	0	1	2.0	0	746	0	0	0	unknown
7	1	12	59	51258	2563	0.6524470673175528	0	1.0	1185.1658089999546	0.0			0	1.0	1	0	1.0	0	747	0	0	0	unknown
7	1	12	60	48682	670	0.6524933699984103	0	1.0	1217.6240749995486	0.0			0	1.0	1	0	1.0	0	748	1	0	1	new
7	1	12	61	5912	9409	0.6525396567303687	0	1.0	1691.1850670003332	0.0			0	1.0	1	0	1.0	0	749	0	0	0	unknown
7	1	12	62	56802	9681	0.6525859569665045	0	1.0	722.6621859990701	0.0			0	1.0	1	0	1.0	0	750	0	0	0	unknown
7	2	1	1	17610	8819	7.588335244217887	0	1.0	775.6239500013181	0.0			0	1.0	1	0	1.0	0	751	0	0	0	unknown
7	2	1	2	66180	2972	7.588381541892886	0	1.0	692.2105549892876	0.0			0	1.0	1	0	1.0	0	752	0	0	0	unknown
7	2	1	3	14595	175	7.5884278437588355	0	1.0	502.0395199971972	0.0			0	1.0	1	0	1.0	0	753	1	0	1	new
7	2	1	4	5274	6169	7.588474140036851	1	1.0	1641.478424993693	0.0	219.0		0	0.0	0	1	2.0	0	754	0	0	0	unknown
7	2	1	5	30524	1591	7.588520420831629	0	1.0	639.1487600049004	0.0			0	1.0	1	0	1.0	0	755	0	0	0	unknown
7	2	1	6	12889	4692	7.588566718157379	0	1.0	650.8090270071989	0.0			0	1.0	1	0	1.0	0	756	0	0	0	unknown
7	2	1	7	20899	4152	7.5886130089638755	0	1.0	1540.6758679891936	0.0			0	1.0	1	0	1.0	0	757	0	0	0	unknown
7	2	1	8	42891	7167	7.588659301050938	0	1.0	1277.159543999005	0.0			0	1.0	1	0	1.0	0	758	0	0	0	unknown
7	2	1	9	21916	4465	7.588705606409347	1	0.0	1575.8616980019724	0.0	154.0		0	1.0	1	0	1.0	0	759	0	0	0	unknown
7	2	1	10	58133	5313	7.588751894305459	0	1.0	1587.1705269964875	0.0			0	1.0	2	0	1.0	0	760	0	0	0	unknown
7	2	1	11	24481	305	7.588798193843104	0	1.0	1216.9834730011644	0.0			0	1.0	1	0	1.0	0	761	1	0	1	new
7	2	1	12	49372	9575	7.588844487792813	1	1.0	2232.6648500020383	1.0	346.0		0	0.0	1	1	2.0	0	762	0	0	0	unknown
7	2	1	13	36975	487	7.588890781044029	0	1.0	679.2106649954803	0.0			0	1.0	1	0	1.0	0	763	1	1	1	new
7	2	1	14	5444	3997	7.588937077205629	0	1.0	962.759037007345	0.0			0	1.0	1	0	1.0	0	764	0	0	0	unknown
7	2	1	15	49675	7390	7.589029559982009	1	0.0	827.5030040094861	0.0	233.0		0	1.0	1	0	1.0	0	765	0	0	0	unknown
7	2	1	16	62308	1277	7.589075860567392	0	1.0	855.7747940067203	0.0			0	1.0	1	0	1.0	0	766	0	0	0	unknown
7	2	1	17	40610	2195	7.58912215079181	0	1.0	1915.0290719990153	0.0			0	1.0	1	0	1.0	0	767	0	0	0	unknown
7	2	1	18	60070	5101	7.5891684422967955	0	1.0	949.4476299878442	0.0			0	1.0	1	0	1.0	0	768	0	0	0	unknown
7	2	1	19	62776	1826	7.589214739506133	0	1.0	1866.250084989588	0.0			0	1.0	1	0	1.0	0	769	0	0	0	unknown
7	2	1	20	30524	1591	7.589261032990181	1	1.0	816.561529005412	0.0	14.0		1	1.0	0	1	2.0	0	770	0	0	0	unknown
7	2	1	21	41379	2080	7.589307326474227	0	1.0	1174.6038130077068	0.0			0	1.0	1	0	1.0	0	771	0	0	0	unknown
7	2	1	22	22722	3804	7.589353626128286	0	1.0	663.3278030058136	0.0			0	1.0	1	0	1.0	0	772	0	0	0	unknown
7	2	1	23	1678	2773	7.589399920077994	0	1.0	1006.8532839941327	0.0			0	1.0	1	0	1.0	0	773	0	0	0	unknown
7	2	1	24	35186	5345	7.589492500177584	1	0.0	1234.7534790023929	0.0	190.0		0	1.0	1	0	1.0	0	774	0	0	0	unknown
7	2	1	25	56210	7130	7.589538795175031	1	1.0	1033.3502490102546	0.0	336.0	497.0	0	0.0	0	1	2.0	0	775	0	0	0	unknown
7	2	1	26	71692	3770	7.589585090521723	1	0.0	643.4365440072725	0.0	646.0		0	1.0	1	0	1.0	0	776	0	0	0	unknown
7	2	1	27	56138	1386	7.589631390292197	1	0.0	2102.8673590044486	0.0	78.0		0	1.0	1	0	1.0	0	777	0	0	0	unknown
7	2	1	28	71350	9317	7.589677683194168	0	1.0	860.6631750008091	0.0			0	1.0	1	0	1.0	0	778	0	0	0	unknown
7	2	1	29	12789	8105	7.589723971905186	0	1.0	965.0293860031524	0.0			0	1.0	1	0	1.0	0	779	0	0	0	unknown
7	2	1	30	27346	8280	7.589770272956229	1	0.0	626.7883999971673	0.0	413.0		0	1.0	1	0	1.0	0	780	0	0	0	unknown
7	2	1	31	36911	485	7.5898165673715985	0	1.0	667.0754939987091	0.0			0	1.0	1	0	1.0	0	781	1	0	1	new
7	2	1	32	16703	200	7.589862853870726	0	1.0	1103.4323030035011	0.0			0	1.0	1	0	1.0	0	782	1	0	1	new
7	2	1	33	44607	9130	7.5899091553874305	0	0.0	1743.9738230023067	0.0			0	0.0	0	1	2.0	0	783	0	0	0	unknown
7	2	1	34	35613	2587	7.589955448871478	0	1.0	705.6071960105328	0.0			0	1.0	1	0	1.0	0	784	0	0	0	unknown
7	2	1	35	19209	2904	7.590001743636094	0	1.0	1372.7271950046995	0.0			0	1.0	1	0	1.0	0	785	0	0	0	unknown
7	2	1	36	59519	4239	7.590094333048911	0	1.0	1320.2663709962508	0.0			0	1.0	1	0	1.0	0	786	0	0	0	unknown
7	2	1	37	33954	8001	7.590140628628432	0	1.0	917.3718149977504	0.0			0	1.0	1	0	1.0	0	787	0	0	0	unknown
7	2	1	38	18345	3312	7.590186912333592	0	1.0	1156.1557809909573	0.0			0	1.0	1	0	1.0	0	788	0	0	0	unknown
7	2	1	39	44846	6903	7.590233214083127	0	1.0	1118.128902002354	0.0			0	1.0	1	0	1.0	0	789	0	0	0	unknown
7	2	1	40	58133	5313	7.590279404772445	1	1.0	822.7956640039338	0.0	29.0		1	1.0	0	1	2.0	0	790	0	0	0	unknown
7	2	1	41	5748	5567	7.590325706754811	0	1.0	1253.8678990094922	0.0			0	1.0	1	0	1.0	0	791	0	0	0	unknown
7	2	1	42	1101	9012	7.59037200047169	0	1.0	1702.5696670025354	0.0			0	1.0	1	0	1.0	0	792	0	0	0	unknown
7	2	1	43	36623	5208	7.590418294304983	0	1.0	862.5703739962772	0.0			0	1.0	1	0	1.0	0	793	0	0	0	unknown
7	2	1	44	38636	3475	7.590464584412984	0	1.0	967.2870890062768	0.0			0	1.0	1	0	1.0	0	794	0	0	0	unknown
7	2	1	45	3209	2336	7.590510884532706	1	1.0	1170.7261120027397	0.0	366.0	433.0	0	0.0	0	1	2.0	0	795	0	0	0	unknown
7	2	1	46	42525	9008	7.590603465796448	1	0.0	856.9825989980018	0.0	192.0		0	1.0	1	0	1.0	0	796	0	0	0	unknown
7	2	1	47	53162	7974	7.590649764868431	1	1.0	1326.3069679960608	0.0	333.0	539.0	0	0.0	0	1	2.0	0	797	0	0	0	unknown
7	2	1	48	26082	8441	7.59069605555851	1	0.0	1670.089197999914	0.0	582.0		0	1.0	1	0	1.0	0	798	0	0	0	unknown
7	2	1	49	5603	53	7.590742350905201	1	0.0	629.7909489949234	0.0	565.0		0	1.0	1	0	1.0	0	799	1	0	2	hard
7	2	1	50	3627	14	7.590788642875849	1	1.0	961.4414739917264	0.0	224.0		0	0.0	0	1	2.0	0	800	1	0	2	hard
7	2	1	51	20631	2255	7.590834939153866	1	0.0	1170.832165997126	0.0	256.0		0	1.0	1	0	1.0	0	801	0	0	0	unknown
7	2	1	52	1107	4096	7.590881234849803	0	1.0	1068.9569270034551	0.0			0	1.0	1	0	1.0	0	802	0	0	0	unknown
7	2	1	53	61749	848	7.590927520883269	0	1.0	646.1322679970181	0.0			0	1.0	1	0	1.0	0	803	1	0	1	new
7	2	1	54	17648	4139	7.590973823564126	0	0.0	1084.184285995434	0.0			0	0.0	0	1	2.0	0	804	0	0	0	unknown
7	2	1	55	45731	9969	7.591066411114298	0	1.0	771.209168000496	0.0			0	1.0	1	0	1.0	0	805	0	0	0	unknown
7	2	1	56	4496	5604	7.591112704598346	0	1.0	1411.8444280029507	0.0			0	1.0	1	0	1.0	0	806	0	0	0	unknown
7	2	1	57	1094	5629	7.59115899959579	0	1.0	805.0409220013535	0.0			0	1.0	1	0	1.0	0	807	0	0	0	unknown
7	2	1	58	10835	5555	7.591205286909825	0	1.0	1311.3488959934327	0.0			0	1.0	1	0	1.0	0	808	0	0	0	unknown
7	2	1	59	8007	86	7.591251589008608	0	1.0	1286.3392770086648	0.0			0	1.0	1	0	1.0	0	809	1	0	1	new
7	2	1	60	36925	7292	7.5912978772539645	0	1.0	757.1309939958155	0.0			0	1.0	1	0	1.0	0	810	0	0	0	unknown
7	2	1	61	71960	2391	7.5913441764423615	0	1.0	692.7593389991671	0.0			0	1.0	1	0	1.0	0	811	0	0	0	unknown
7	2	1	62	35072	1282	7.591390468995088	0	1.0	741.9978399993851	0.0			0	1.0	1	0	1.0	0	812	0	0	0	unknown
7	2	1	63	30990	2152	7.591436665854416	1	0.0	829.2270529927919	0.0	77.0		0	1.0	1	0	1.0	0	813	0	0	0	unknown
7	2	2	1	56819	7785	7.59324280056171	0	1.0	759.9849599937442	0.0			0	1.0	1	0	1.0	0	814	0	0	0	unknown
7	2	2	2	32293	4946	7.593289159238338	0	0.0	1350.792953002383	0.0			0	0.0	0	1	2.0	0	815	0	0	0	unknown
7	2	2	3	48134	6483	7.593335379962809	0	1.0	911.6441279911669	0.0			0	1.0	1	0	1.0	0	816	0	0	0	unknown
7	2	2	4	49100	1436	7.593381755286827	0	1.0	807.9342979908688	0.0			0	1.0	1	0	1.0	0	817	0	0	0	unknown
7	2	2	5	13789	6808	7.5934279734501615	0	1.0	851.0622670000884	0.0			0	1.0	1	0	1.0	0	818	0	0	0	unknown
7	2	2	6	56661	6129	7.593474353197961	0	1.0	1295.4042189958273	0.0			0	1.0	1	0	1.0	0	819	0	0	0	unknown
7	2	2	7	2683	3625	7.593520561931655	0	1.0	2840.2118349913508	1.0			0	1.0	1	1	1.0	0	820	0	0	0	unknown
7	2	2	8	54438	4127	7.593566948082298	0	1.0	1238.543822997599	0.0			0	1.0	1	0	1.0	0	821	0	0	0	unknown
7	2	2	9	4787	36	7.593613143428227	1	0.0	1054.3436129955808	0.0	131.0	418.0	0	1.0	1	0	1.0	0	822	1	0	3	hard
7	2	2	10	2683	3625	7.593659542850218	1	1.0	793.5915150010259	0.0	2.0		1	1.0	0	1	2.0	0	823	0	0	0	unknown
7	2	2	11	10423	8509	7.593752140062861	0	0.0	1577.5318960077127	0.0			0	0.0	0	1	2.0	0	824	0	0	0	unknown
7	2	2	12	62454	7629	7.593798328074626	0	1.0	672.6200889970642	0.0			0	1.0	1	0	1.0	0	825	0	0	0	unknown
7	2	2	13	22070	1218	7.593844735762104	1	1.0	975.1126810006099	0.0	170.0		0	0.0	0	1	2.0	0	826	0	0	0	unknown
7	2	2	14	32844	6410	7.593890915857629	1	0.0	702.4733610014664	0.0	267.0		0	1.0	1	0	1.0	0	827	0	0	0	unknown
7	2	2	15	13139	159	7.593937324127182	0	1.0	1106.0472969984403	0.0			0	1.0	1	0	1.0	0	828	1	1	1	new
7	2	2	16	36911	485	7.593983504455536	1	1.0	1566.6767300135689	1.0	47.0		1	1.0	1	1	2.0	0	829	1	0	2	easy
7	2	2	17	65259	3127	7.594029707135632	0	0.0	1510.0856219942216	0.0			0	0.0	0	1	2.0	0	830	0	0	0	unknown
7	2	2	18	31389	9744	7.594075995264576	0	1.0	534.648721004487	0.0			0	1.0	1	0	1.0	0	831	0	0	0	unknown
7	2	2	19	5303	3412	7.594122289796358	0	1.0	929.9807969946414	0.0			0	1.0	1	0	1.0	0	832	0	0	0	unknown
7	2	2	20	68106	9461	7.594168586772866	0	1.0	938.188242012984	0.0			0	1.0	1	0	1.0	0	833	0	0	0	unknown
7	2	2	21	57934	4620	7.594261169666424	1	0.0	631.6652829991654	0.0	181.0		0	1.0	1	0	1.0	0	834	0	0	0	unknown
7	2	2	22	60301	4250	7.594307465944438	0	1.0	1029.7101399919484	0.0			0	1.0	1	0	1.0	0	835	0	0	0	unknown
7	2	2	23	56805	8816	7.594353761174717	1	0.0	829.9336899945047	0.0	272.0		0	1.0	1	0	1.0	0	836	0	0	0	unknown
7	2	2	24	35613	2587	7.594400048721581	1	1.0	1005.8135559957008	0.0	52.0		1	1.0	0	1	2.0	0	837	0	0	0	unknown
7	2	2	25	19155	7627	7.5944463410414755	0	1.0	1528.761083012796	0.0			0	1.0	1	0	1.0	0	838	0	0	0	unknown
7	2	2	26	25455	327	7.5944926453521475	0	1.0	967.0135880005546	0.0			0	1.0	1	0	1.0	0	839	1	0	1	new
7	2	2	27	39032	7054	7.594538935227319	0	1.0	901.8270529923027	0.0			0	1.0	1	0	1.0	0	840	0	0	0	unknown
7	2	2	28	66657	6637	7.594585225102491	0	1.0	737.3786590032979	0.0			0	1.0	1	0	1.0	0	841	0	0	0	unknown
7	2	2	29	1314	4945	7.594631521729752	0	1.0	1067.960114989546	0.0			0	1.0	1	0	1.0	0	842	0	0	0	unknown
7	2	2	30	14392	3524	7.594677819986827	0	1.0	803.9345360011794	0.0			0	1.0	1	0	1.0	0	843	0	0	0	unknown
7	2	2	31	16211	8854	7.594724109745584	0	1.0	904.419667989714	0.0			0	1.0	1	0	1.0	0	844	0	0	0	unknown
7	2	2	32	38031	3822	7.594770407420582	1	1.0	2564.470592988073	1.0	123.0	172.0	0	0.0	1	1	2.0	0	845	0	0	0	unknown
7	2	2	33	14529	173	7.594816701719537	1	1.0	969.4515619921731	0.0	120.0	244.0	0	0.0	0	1	2.0	0	846	1	0	3	hard
7	2	2	34	11044	3975	7.594909281819127	0	1.0	1175.1554190122988	0.0			0	1.0	1	0	1.0	0	847	0	0	0	unknown
7	2	2	35	25459	8077	7.5949555842671534	0	1.0	1150.210009989678	0.0			0	1.0	1	0	1.0	0	848	0	0	0	unknown
7	2	2	36	71512	3935	7.595001878216863	0	1.0	639.9871650064597	0.0			0	1.0	1	0	1.0	0	849	0	0	0	unknown
7	2	2	37	36623	5208	7.59504817193374	1	1.0	824.349450005684	0.0	56.0		1	1.0	0	1	2.0	0	850	0	0	0	unknown
7	2	2	38	30560	3179	7.59509446634911	0	1.0	829.1306379978778	0.0			0	1.0	1	0	1.0	0	851	0	0	0	unknown
7	2	2	39	51836	1189	7.595140757737681	0	1.0	1346.461380002438	0.0			0	1.0	1	0	1.0	0	852	0	0	0	unknown
7	2	2	40	4779	8403	7.595187054947018	0	1.0	1053.3534490095917	0.0			0	1.0	1	0	1.0	0	853	0	0	0	unknown
7	2	2	41	72208	1776	7.595233348896728	0	1.0	1164.2633799929172	0.0			0	1.0	1	0	1.0	0	854	0	0	0	unknown
7	2	2	42	54623	4187	7.59527964598965	0	1.0	1392.8889739909207	0.0			0	1.0	1	0	1.0	0	855	0	0	0	unknown
7	2	2	43	72707	3769	7.595325840637088	0	1.0	1308.9930139976786	0.0			0	1.0	1	0	1.0	0	856	0	0	0	unknown
7	2	2	44	10370	4812	7.595418429002165	0	1.0	1003.5400400083744	0.0			0	1.0	1	0	1.0	0	857	0	0	0	unknown
7	2	2	45	37029	6635	7.595464724814518	0	1.0	963.9308790065116	0.0			0	1.0	1	0	1.0	0	858	0	0	0	unknown
7	2	2	46	25962	1490	7.595511013758368	1	0.0	1165.7933270034844	0.0	157.0		0	1.0	1	0	1.0	0	859	0	0	0	unknown
7	2	2	47	64599	9571	7.59555731236469	1	0.0	821.4121399942086	0.0	280.0		0	1.0	1	0	1.0	0	860	0	0	0	unknown
7	2	2	48	56138	1386	7.595603597466835	1	1.0	802.9251599946291	0.0	83.0	162.0	1	1.0	0	1	2.0	0	861	0	0	0	unknown
7	2	2	49	68883	5896	7.595649901311843	1	0.0	865.0794489949477	0.0	331.0		0	1.0	1	0	1.0	0	862	0	0	0	unknown
7	2	2	50	38186	3371	7.595696186181159	0	1.0	933.5541949985779	0.0			0	1.0	1	0	1.0	0	863	0	0	0	unknown
7	2	2	51	1648	8303	7.595742481411434	0	0.0	1468.499612994492	0.0			0	0.0	0	1	2.0	0	864	0	0	0	unknown
7	2	2	52	65123	8258	7.5957887849071986	0	1.0	883.4376290033106	0.0			0	1.0	1	0	1.0	0	865	0	0	0	unknown
7	2	2	53	42411	2854	7.595835069892928	0	1.0	951.2215659924549	0.0			0	1.0	1	0	1.0	0	866	0	0	0	unknown
7	2	2	54	68838	5745	7.595927664777264	1	1.0	2009.3329679948513	0.0	229.0	344.0	0	0.0	0	1	2.0	0	867	0	0	0	unknown
7	2	2	55	62905	8175	7.595973955118097	1	0.0	704.0447699982906	0.0	449.0		0	1.0	1	0	1.0	0	868	0	0	0	unknown
7	2	2	56	10088	6851	7.596020246972331	0	1.0	1584.6878150041448	0.0			0	1.0	1	0	1.0	0	869	0	0	0	unknown
7	2	2	57	9231	108	7.596066547441296	0	1.0	971.151951001957	0.0			0	1.0	1	0	1.0	0	870	1	0	1	new
7	2	2	58	14595	175	7.596112840343266	1	1.0	825.7487280061468	0.0	117.0		1	1.0	0	1	2.0	0	871	1	0	2	easy
7	2	2	59	10088	6851	7.59615913813468	1	1.0	802.7164389932294	0.0	2.0		1	1.0	0	1	2.0	0	872	0	0	0	unknown
7	2	2	60	1648	8303	7.596205429406835	1	1.0	728.2120900053997	0.0	8.0		1	1.0	0	1	2.0	0	873	0	0	0	unknown
7	2	2	61	7048	3663	7.596251723007299	0	1.0	1216.322205000324	0.0			0	1.0	1	0	1.0	0	874	0	0	0	unknown
7	2	2	62	62776	1826	7.596298014163039	1	1.0	1683.2710460003	0.0	105.0		1	1.0	0	2	2.0	0	875	0	0	0	unknown
7	2	3	1	61749	848	7.59784576925449	1	0.0	762.7597870014142	0.0	72.0		1	0.0	1	0	1.0	0	876	1	0	2	easy
7	2	3	2	24366	1143	7.597892064717598	0	1.0	711.9852309988346	0.0			0	1.0	1	0	1.0	0	877	0	0	0	unknown
7	2	3	3	51772	2020	7.597938355174848	0	1.0	726.4954809943447	0.0			0	1.0	1	0	1.0	0	878	0	0	0	unknown
7	2	3	4	54717	3783	7.597984651336446	0	1.0	759.3902700027684	0.0			0	1.0	1	0	1.0	0	879	0	0	0	unknown
7	2	3	5	10370	4812	7.598030946799555	1	1.0	858.2527099933941	0.0	22.0		1	1.0	0	1	2.0	0	880	0	0	0	unknown
7	2	3	6	9049	106	7.598077237838878	0	1.0	1001.9840280001516	0.0			0	1.0	1	0	1.0	0	881	1	0	1	new
7	2	3	7	3721	4361	7.598123528994621	0	0.0	924.97387099138	0.0			0	0.0	0	1	2.0	0	882	0	0	0	unknown
7	2	3	8	71383	1626	7.598169824108481	0	1.0	902.8166680072901	0.0			0	1.0	1	0	1.0	0	883	0	0	0	unknown
7	2	3	9	35236	3996	7.598216123646125	1	0.0	1047.1843010018347	0.0	568.0		0	1.0	1	0	1.0	0	884	0	0	0	unknown
7	2	3	10	2556	4292	7.598262408515438	0	1.0	943.5981540009379	0.0			0	1.0	1	0	1.0	0	885	0	0	0	unknown
7	2	3	11	34202	8706	7.598355001071469	1	1.0	2129.971137997927	1.0	204.0		0	0.0	1	1	2.0	0	886	0	0	0	unknown
7	2	3	12	69507	1420	7.598401297698728	0	1.0	880.9758570132544	0.0			0	1.0	1	0	1.0	0	887	0	0	0	unknown
7	2	3	13	49597	9893	7.5984475903678685	0	1.0	1128.2889590074772	0.0			0	1.0	1	0	1.0	0	888	0	0	0	unknown
7	2	3	14	26593	7841	7.598493884899653	0	1.0	682.7725729963277	0.0			0	1.0	1	0	1.0	0	889	0	0	0	unknown
7	2	3	15	40859	1803	7.598540184437297	0	1.0	1251.9322049920447	0.0			0	1.0	1	0	1.0	0	890	0	0	0	unknown
7	2	3	16	14936	1040	7.598586467560381	1	0.0	1138.505939990864	0.0	232.0		0	1.0	1	0	1.0	0	891	0	0	0	unknown
7	2	3	17	68291	3284	7.598632766283117	1	0.0	1168.1421149987727	0.0	761.0		0	1.0	1	0	1.0	0	892	0	0	0	unknown
7	2	3	18	59196	1498	7.598679063026793	0	1.0	1087.8596659895263	0.0			0	1.0	1	0	1.0	0	893	0	0	0	unknown
7	2	3	19	53876	2485	7.598725351155735	0	1.0	1402.601962996414	0.0			0	1.0	1	0	1.0	0	894	0	0	0	unknown
7	2	3	20	42525	9008	7.5988179467385635	1	0.0	1301.670363987796	0.0	98.0	291.0	1	0.0	1	0	1.0	0	895	0	0	0	unknown
7	2	3	21	13143	9484	7.5988642347510895	1	1.0	1535.4571930074599	0.0	195.0	567.0	0	0.0	0	1	2.0	0	896	0	0	0	unknown
7	2	3	22	48440	1994	7.59891053487081	1	0.0	1003.5112339974148	0.0	199.0		0	1.0	1	0	1.0	0	897	0	0	0	unknown
7	2	3	23	46000	625	7.598956819623709	0	0.0	2386.916466988623	0.0			0	0.0	0	1	2.0	0	898	1	0	1	new
7	2	3	24	17610	8819	7.599003122653811	1	1.0	2426.5825180045795	0.0	147.0		1	1.0	0	1	2.0	0	899	0	0	0	unknown
7	2	3	25	9345	7020	7.599049320095218	1	1.0	1667.0893980044639	0.0	426.0		0	0.0	0	1	2.0	0	900	0	0	0	unknown
7	2	3	26	42852	570	7.599095611600204	0	1.0	669.1060829907656	0.0			0	1.0	1	0	1.0	0	901	1	1	1	new
7	2	3	27	23420	7066	7.59914190811105	0	1.0	2286.7763249960262	0.0			0	1.0	1	0	1.0	0	902	0	0	0	unknown
7	2	3	28	68365	7410	7.59918819903396	0	1.0	745.2861289930297	0.0			0	1.0	1	0	1.0	0	903	0	0	0	unknown
7	2	3	29	28356	7306	7.5992344898404545	0	1.0	686.986707005417	0.0			0	1.0	1	0	1.0	0	904	0	0	0	unknown
7	2	3	30	56819	7785	7.599327078089118	1	0.0	1268.3068350015672	0.0	90.0		1	0.0	1	0	1.0	0	905	0	0	0	unknown
7	2	3	31	20899	4152	7.5993733720388255	1	1.0	988.1317039980786	0.0	148.0		1	1.0	0	1	2.0	0	906	0	0	0	unknown
7	2	3	32	15646	1645	7.599419672973454	1	0.0	852.9007239994826	0.0	682.0		0	1.0	1	0	1.0	0	907	0	0	0	unknown
7	2	3	33	22516	276	7.599465959472581	0	1.0	2009.8491779936007	1.0			0	1.0	1	1	1.0	0	908	1	0	1	new
7	2	3	34	56265	1475	7.599512262386269	0	1.0	1122.6637399959145	0.0			0	1.0	1	0	1.0	0	909	0	0	0	unknown
7	2	3	35	27648	1102	7.599558550864457	0	1.0	1283.8834779977333	0.0			0	1.0	1	0	1.0	0	910	0	0	0	unknown
7	2	3	36	10370	4812	7.59960484271869	1	1.0	749.094661005074	0.0	30.0	53.0	1	1.0	0	1	2.0	0	911	0	0	0	unknown
7	2	3	37	20899	4152	7.59965114167426	1	1.0	702.2631360014202	0.0	5.0	154.0	1	1.0	0	1	2.0	0	912	0	0	0	unknown
7	2	3	38	36911	485	7.599697437835857	1	1.0	1169.0759229968535	0.0	83.0	131.0	1	1.0	0	1	2.0	0	913	1	0	3	easy
7	2	3	39	40841	534	7.599743734928779	0	0.0	802.0934039959683	0.0			0	0.0	0	1	2.0	0	914	1	0	1	new
7	2	3	40	72908	7561	7.599790023174138	1	1.0	1302.53557600372	0.0	173.0	296.0	0	0.0	0	1	2.0	0	915	0	0	0	unknown
7	2	3	41	33611	7116	7.59983631328214	0	1.0	611.3106920092832	0.0			0	1.0	1	0	1.0	0	916	0	0	0	unknown
7	2	3	42	20869	4035	7.599928908050061	0	1.0	1017.482106006355	0.0			0	1.0	1	0	1.0	0	917	0	0	0	unknown
7	2	3	43	14764	6077	7.599975202581845	0	1.0	1910.7741810003065	0.0			0	1.0	1	0	1.0	0	918	0	0	0	unknown
7	2	3	44	25883	4593	7.60002150083892	0	1.0	865.5120710027405	0.0			0	1.0	1	0	1.0	0	919	0	0	0	unknown
7	2	3	45	8843	4442	7.600067790481263	0	1.0	703.5423950001132	0.0			0	1.0	1	0	1.0	0	920	0	0	0	unknown
7	2	3	46	44607	9130	7.600114085129462	1	1.0	1247.1930299943779	0.0	137.0		1	1.0	0	1	2.0	0	921	0	0	0	unknown
7	2	3	47	61749	848	7.600160379312001	1	1.0	817.8665089944843	0.0	45.0	118.0	1	1.0	0	1	2.0	0	922	1	0	3	easy
7	2	3	48	53686	5221	7.600206673494541	0	1.0	890.3473050013417	0.0			0	1.0	1	0	1.0	0	923	0	0	0	unknown
7	2	3	49	58133	5313	7.600252967444248	1	1.0	782.9513820033753	0.0	133.0	163.0	1	1.0	0	2	2.0	0	924	0	0	0	unknown
7	2	3	50	6644	4893	7.600299160927534	0	1.0	663.7973030010471	0.0			0	1.0	1	0	1.0	0	925	0	0	0	unknown
7	2	3	51	9028	105	7.600345452781767	0	1.0	843.8349479984025	0.0			0	1.0	1	0	1.0	0	926	1	0	1	new
7	2	3	52	22836	1937	7.600391747662797	0	1.0	702.3120789963286	0.0			0	1.0	1	0	1.0	0	927	0	0	0	unknown
7	2	3	53	30756	4900	7.600438048830256	1	0.0	901.9537790009052	0.0	802.0		0	1.0	1	0	1.0	0	928	0	0	0	unknown
7	2	3	54	10088	6851	7.600530637195335	1	1.0	1441.6118259978248	0.0	56.0	59.0	1	1.0	0	1	2.0	0	929	0	0	0	unknown
7	2	3	55	14333	6265	7.600576933473347	0	1.0	1327.87787799316	0.0			0	1.0	1	0	1.0	0	930	0	0	0	unknown
7	2	3	56	46355	1069	7.600623219273984	1	0.0	757.1999409992713	0.0	276.0		0	1.0	1	0	1.0	0	931	0	0	0	unknown
7	2	3	57	40610	2195	7.600669518695215	1	0.0	1403.1896579981549	0.0	164.0		1	0.0	1	0	1.0	0	932	0	0	0	unknown
7	2	3	58	57097	2484	7.600715805776417	0	1.0	762.3343390005174	0.0			0	1.0	1	0	1.0	0	933	0	0	0	unknown
7	2	3	59	35245	3699	7.600762100191786	0	1.0	1364.4568790041376	0.0			0	1.0	1	0	1.0	0	934	0	0	0	unknown
7	2	3	60	18419	3940	7.600808393326589	0	1.0	1133.4966909926152	0.0			0	1.0	1	0	1.0	0	935	0	0	0	unknown
7	2	3	61	39032	7054	7.600854688207619	1	1.0	703.4445799945388	0.0	95.0		1	1.0	0	1	2.0	0	936	0	0	0	unknown
7	2	3	62	17421	2492	7.600900981458835	0	1.0	771.5044450014828	0.0			0	1.0	1	0	1.0	0	937	0	0	0	unknown
7	2	3	63	62454	7629	7.60094728053082	1	0.0	1772.8004390082788	0.0	112.0		1	0.0	1	0	1.0	0	938	0	0	0	unknown
7	2	4	1	2455	5273	7.602942916797474	1	0.0	1070.4221699998016	0.0	247.0		0	1.0	1	0	1.0	0	939	0	0	0	unknown
7	2	4	2	2029	4467	7.602989256964066	0	1.0	656.6901490004966	0.0			0	1.0	1	0	1.0	0	940	0	0	0	unknown
7	2	4	3	4496	5604	7.603035500389523	1	1.0	926.101300996379	0.0	134.0		1	1.0	0	1	2.0	0	941	0	0	0	unknown
7	2	4	4	54438	4127	7.603081841953098	1	1.0	1120.7830809871666	0.0	120.0		1	1.0	0	1	2.0	0	942	0	0	0	unknown
7	2	4	5	10566	5242	7.603128094575366	0	1.0	965.7282279949869	0.0			0	1.0	1	0	1.0	0	943	0	0	0	unknown
7	2	4	6	53892	742	7.603174450690857	0	1.0	731.3692559982883	0.0			0	1.0	1	0	1.0	0	944	1	0	1	new
7	2	4	7	50658	5995	7.603220679447985	0	1.0	502.9711249953834	0.0			0	1.0	1	0	1.0	0	945	0	0	0	unknown
7	2	4	8	27522	6183	7.603267034632154	0	1.0	1172.0472099987091	0.0			0	1.0	1	0	1.0	0	946	0	0	0	unknown
7	2	4	9	3451	3974	7.60331326269079	0	1.0	792.6676900096936	0.0			0	1.0	1	0	1.0	0	947	0	0	0	unknown
7	2	4	10	12016	3927	7.603405857575126	0	1.0	1257.613407986355	0.0			0	1.0	1	0	1.0	0	948	0	0	0	unknown
7	2	4	11	4198	9913	7.603452229523101	1	0.0	654.2940200015437	0.0	874.0		0	1.0	1	0	1.0	0	949	0	0	0	unknown
7	2	4	12	23420	7066	7.603498441167174	1	0.0	2254.339549006545	0.0	47.0		1	0.0	1	0	1.0	0	950	0	0	0	unknown
7	2	4	13	61874	853	7.603544825222342	0	1.0	1236.4927700109547	0.0			0	1.0	1	0	1.0	0	951	1	1	1	new
7	2	4	14	6269	7979	7.603591032675467	0	1.0	637.1928910084534	0.0			0	1.0	1	0	1.0	0	952	0	0	0	unknown
7	2	4	15	13524	2247	7.603637421852909	0	1.0	632.1708790055709	0.0			0	1.0	1	0	1.0	0	953	0	0	0	unknown
7	2	4	16	18731	4061	7.603683625697158	1	0.0	706.8970539985457	0.0	855.0		0	1.0	1	0	1.0	0	954	0	0	0	unknown
7	2	4	17	8814	7697	7.6037300187163055	1	1.0	1865.973706007935	1.0	392.0		0	0.0	1	1	2.0	0	955	0	0	0	unknown
7	2	4	18	65311	2287	7.60377621022053	0	1.0	974.5480910059998	0.0			0	1.0	1	0	1.0	0	956	0	0	0	unknown
7	2	4	19	17214	9977	7.603868799516931	0	1.0	1264.7595339949476	0.0			0	1.0	1	0	1.0	0	957	0	0	0	unknown
7	2	4	20	26740	6728	7.603915210813285	0	1.0	726.5770159865496	0.0			0	1.0	1	0	1.0	0	958	0	0	0	unknown
7	2	4	21	65553	5811	7.6039613872999325	0	1.0	738.5862009978154	0.0			0	1.0	1	0	1.0	0	959	0	0	0	unknown
7	2	4	22	37854	3586	7.60400780744385	0	1.0	913.9929509983632	0.0			0	1.0	1	0	1.0	0	960	0	0	0	unknown
7	2	4	23	47023	2584	7.604053972987457	0	0.0	1567.8695310052717	0.0			0	0.0	0	1	2.0	0	961	0	0	0	unknown
7	2	4	24	33147	5905	7.604100174619816	0	1.0	1603.6755070090292	1.0			0	1.0	1	1	1.0	0	962	0	0	0	unknown
